Format 6,Lead1(1),Lead2(1),Lead3(1),Lead1(2),Lead2(2),Lead3(2),Resp1(1),Resp2(1),Resp1(2),Resp2(2),AccX,AccY,AccZ,,HeartRate,RespRate,BodyTemp,EventAlert,FreeFall,LeadOff,ActIndex,ActX,ActY,ActZ,
38,-14,-1976,-1961,-15,-1970,-1954,1993,2127,1994,2110,-82,-81,20,,,,,,,,12,-2,-2,39,
39,-14,-1965,-1950,-13,-1952,-1938,1970,2110,1979,2097,-82,-81,20,,
40,-14,-1953,-1938,-14,-1940,-1926,1976,2101,1996,2097,-82,-81,20,,
41,-12,-1931,-1918,-13,-1929,-1916,1947,2078,1899,2087,-82,-81,20,,
42,-9,-1906,-1896,-5,-1889,-1884,1870,2083,1881,2062,-82,-81,20,,
43,1,-1862,-1862,6,-1844,-1849,1900,2051,1927,2045,-82,-81,20,,
44,10,-1825,-1835,15,-1805,-1820,1930,2052,1933,2031,-82,-81,20,,
45,11,-1813,-1823,11,-1809,-1819,1950,2027,1960,2019,-82,-81,20,,
46,5,-1816,-1821,1,-1817,-1817,1981,2006,1978,2001,-82,-81,20,,,,,,,,12,-2,-2,8,
47,-3,-1828,-1825,-13,-1840,-1827,1923,1983,1897,1973,-82,-81,20,,,,,,,,12,-2,-2,7,
48,-13,-1835,-1821,-15,-1834,-1818,1905,1972,1877,1972,-82,-81,20,,
49,-14,-1823,-1808,-13,-1814,-1801,1864,1968,1843,1952,-82,-81,20,,
50,-14,-1810,-1795,-13,-1796,-1782,1839,1967,1867,1946,-82,-81,20,,,,,,,,12,-2,-2,4,
51,-15,-1796,-1781,-13,-1783,-1769,1904,1923,1958,1929,-82,-81,20,,
52,-12,-1772,-1760,-14,-1773,-1758,1977,1911,1974,1891,-82,-81,20,,
53,-12,-1756,-1743,-13,-1769,-1755,1967,1883,1958,1870,-82,-81,20,,,,,,,,12,-2,-2,4,
54,41,-1515,-1555,161,-1195,-1356,1948,1868,1937,1849,-82,-81,20,,,,,,,,12,-2,-2,4,
55,311,-822,-1132,337,-958,-1294,1931,1855,1921,1842,-82,-81,20,,
56,73,-1606,-1679,-107,-1989,-1882,1912,1839,1904,1852,-82,-81,20,,
57,-68,-1804,-1735,-28,-1734,-1705,1692,1834,1642,1838,-82,-81,20,,,,,,,,12,-2,-2,4,
58,-21,-1704,-1682,-18,-1696,-1677,1653,1842,1713,1835,-82,-81,20,,,,,,,,12,-2,-2,4,
59,-18,-1690,-1671,-17,-1675,-1658,1735,1825,1739,1806,-82,-81,20,,,,,,,,12,-2,-2,4,
60,-19,-1676,-1657,-18,-1663,-1644,1729,1794,1769,1793,-82,-81,20,,,,,,,,12,-2,-2,4,
61,-17,-1652,-1635,-19,-1651,-1632,1799,1781,1741,1783,-82,-81,20,,
62,-17,-1635,-1617,-17,-1633,-1616,1690,1783,1746,1749,-82,-81,20,,,,,,,,12,-2,-2,4,
63,-19,-1621,-1602,-11,-1598,-1586,1713,1755,1755,1755,-82,-81,20,,,,,,,,12,-2,-2,4,
64,-11,-1595,-1584,-10,-1576,-1566,1670,1750,1665,1738,-82,-81,20,,,,,,,,12,-2,-2,4,
65,-6,-1560,-1554,-1,-1541,-1539,1749,1709,1746,1718,-82,-81,20,,
66,4,-1519,-1522,5,-1514,-1519,1738,1702,1729,1692,-82,-81,20,,94,,,,,,12,-2,-2,4,
67,11,-1486,-1496,12,-1478,-1489,1723,1697,1711,1677,-82,-81,20,,
68,17,-1456,-1472,23,-1430,-1453,1646,1677,1460,1664,-82,-81,20,,
69,26,-1421,-1447,27,-1406,-1432,1474,1675,1531,1667,-82,-81,20,,
70,34,-1383,-1416,38,-1363,-1400,1453,1662,1472,1643,-82,-81,20,,,,,,,,12,-2,-2,4,
71,44,-1338,-1382,47,-1328,-1374,1558,1630,1523,1640,-82,-81,20,,
72,49,-1312,-1360,54,-1294,-1347,1352,1644,1221,1628,-82,-81,20,,
73,55,-1286,-1340,57,-1266,-1323,1170,1624,1158,1611,-82,-81,20,,,,,,,,12,-2,-2,4,
74,57,-1259,-1316,56,-1260,-1316,1165,1596,1160,1601,-82,-81,20,,
75,55,-1259,-1314,47,-1274,-1321,1083,1594,927,1592,-82,-81,20,,
76,44,-1274,-1318,32,-1301,-1333,800,1581,685,1577,-82,-81,20,,,,,,,,12,-2,-2,4,
77,22,-1321,-1342,16,-1335,-1351,551,1570,496,1561,-82,-81,20,,
78,1,-1372,-1372,-14,-1399,-1385,475,1553,511,1544,-82,-81,20,,
79,-28,-1420,-1392,-28,-1411,-1382,708,1531,805,1544,-82,-81,20,,
80,-24,-1395,-1371,-23,-1391,-1368,745,1534,853,1505,-82,-81,20,,,,,,,,11,-2,-2,4,
81,-24,-1380,-1356,-25,-1372,-1347,905,1490,942,1502,-82,-81,20,,
82,-23,-1366,-1343,-24,-1352,-1328,1008,1503,1095,1493,-82,-81,20,,
83,-23,-1350,-1327,-26,-1340,-1314,1123,1481,1106,1458,-82,-81,20,,
84,-22,-1327,-1304,-24,-1323,-1299,1117,1442,1158,1447,-82,-81,20,,
85,-24,-1309,-1285,-21,-1301,-1280,1218,1454,1279,1446,-82,-81,20,,,,,,,,11,-2,-2,4,
86,-22,-1292,-1269,-22,-1280,-1258,1308,1441,1312,1428,-82,-81,20,,
87,-24,-1278,-1253,-21,-1260,-1239,1345,1416,1388,1404,-82,-81,20,,
88,-21,-1255,-1233,-22,-1249,-1226,1389,1390,1372,1390,-82,-81,20,,
89,-21,-1234,-1213,-22,-1232,-1210,1361,1376,1373,1374,-82,-81,20,,
90,-22,-1220,-1198,-20,-1211,-1191,1380,1369,1372,1341,-82,-81,20,,,,,,,,11,-2,-2,4,
91,-20,-1205,-1185,-18,-1189,-1170,1363,1355,1354,1342,-82,-81,20,,
92,-20,-1187,-1166,-19,-1176,-1156,1344,1337,1337,1341,-82,-81,20,,
93,-17,-1164,-1147,-20,-1165,-1144,1327,1332,1318,1308,-82,-81,20,,
94,-18,-1148,-1130,-19,-1147,-1127,1310,1309,1301,1292,-82,-81,20,,
95,-19,-1137,-1117,-18,-1126,-1108,1291,1307,1283,1291,-82,-81,20,,,,,,,,11,-2,-2,4,
96,-19,-1125,-1105,-17,-1112,-1094,1273,1273,1266,1274,-82,-81,20,,
97,-18,-1107,-1088,-19,-1099,-1080,1256,1264,1248,1259,-82,-81,20,,
98,-15,-1083,-1067,-16,-1082,-1065,1237,1238,1229,1237,-82,-81,20,,
99,-16,-1069,-1053,-15,-1062,-1046,1219,1230,1212,1226,-82,-81,20,,
100,-16,-1059,-1043,-15,-1044,-1028,1202,1224,1194,1218,-82,-81,20,,,,,,,,11,-2,-2,4,
101,-17,-1043,-1025,-16,-1030,-1013,1185,1211,1175,1214,-82,-81,20,,
102,-13,-1021,-1007,-16,-1016,-1000,1167,1203,1159,1197,-82,-81,20,,
103,-13,-998,-985,-15,-1000,-984,1149,1184,1140,1174,-82,-81,20,,
104,-15,-988,-973,-13,-976,-963,1131,1169,1122,1154,-82,-81,20,,
105,-13,-972,-959,-13,-953,-939,1112,1158,1105,1151,-82,-81,20,,
106,-6,-934,-927,-1,-909,-907,1096,1138,1085,1132,-82,-81,20,,
107,6,-881,-886,10,-866,-876,1076,1130,1069,1135,-82,-81,20,,
108,12,-845,-857,16,-832,-848,1059,1126,1050,1112,-82,-81,20,,,,,,,,11,-2,-2,4,
109,12,-839,-851,8,-836,-843,1028,1099,985,1097,-82,-81,20,,
110,5,-842,-846,-1,-846,-844,1007,1096,1016,1088,-82,-81,20,,
111,-5,-852,-847,-10,-861,-850,1007,1071,995,1069,-82,-81,20,,
112,-14,-854,-840,-14,-850,-835,988,1067,980,1062,-82,-81,20,,
113,-13,-838,-824,-15,-832,-816,964,1057,923,1051,-82,-81,20,,,,,,,,11,-2,-2,4,
114,-13,-824,-810,-13,-809,-795,920,1039,895,1016,-82,-81,20,,
115,-12,-807,-794,-14,-798,-784,856,1015,846,1013,-82,-81,20,,
116,-11,-782,-770,-13,-781,-767,821,1004,771,1005,-82,-81,20,,
117,-12,-767,-754,-17,-781,-763,764,1000,737,985,-82,-81,20,,
118,60,-482,-542,175,-172,-346,717,985,704,970,-82,-81,20,,
119,324,189,-135,314,-56,-369,734,971,740,970,-82,-81,20,,,,,,,,11,-2,-2,4,
120,53,-675,-728,-116,-1009,-892,744,951,743,947,-82,-81,20,,
121,-56,-789,-732,-28,-739,-710,720,940,709,932,-82,-81,20,,
122,-22,-710,-687,-18,-699,-680,695,916,675,919,-82,-81,20,,
123,-17,-690,-673,-18,-679,-660,675,905,665,904,-82,-81,20,,
124,-20,-677,-657,-20,-664,-644,661,894,666,901,-82,-81,20,,
125,-18,-650,-632,-21,-649,-628,647,880,663,884,-82,-81,20,,
126,-19,-633,-614,-17,-627,-610,680,870,686,854,-82,-81,20,,57,,,,,,11,-2,-2,4,
127,-18,-611,-593,-11,-588,-577,655,854,593,854,-82,-81,20,,
128,-12,-584,-571,-9,-564,-555,523,843,482,836,-82,-81,20,,
129,-4,-544,-540,0,-523,-523,477,827,506,822,-82,-81,20,,
130,3,-504,-506,5,-492,-497,501,827,478,811,-82,-81,20,,
131,9,-469,-477,14,-451,-464,508,805,497,786,-82,-81,20,,
132,18,-430,-447,25,-404,-428,496,791,448,780,-82,-81,20,,,0,,,,,10,-2,-2,4,
133,25,-397,-422,28,-374,-402,421,763,464,753,-82,-81,20,,
134,34,-351,-385,38,-332,-370,461,758,453,757,-82,-81,20,,
135,45,-303,-347,46,-295,-341,451,744,450,733,-82,-81,20,,
136,49,-280,-329,54,-260,-313,483,730,463,722,-82,-81,20,,
137,56,-251,-306,61,-231,-291,462,717,467,714,-82,-81,20,,
138,58,-225,-283,57,-227,-284,423,709,363,710,-82,-81,20,,,,,,,,10,-2,-2,4,
139,54,-225,-279,46,-242,-287,258,695,239,694,-82,-81,20,,
140,45,-240,-285,35,-261,-296,234,689,199,680,-82,-81,20,,
141,18,-291,-309,14,-301,-314,184,661,215,653,-82,-81,20,,
142,1,-335,-336,-17,-366,-349,244,655,271,640,-82,-81,20,,
143,-25,-376,-350,-25,-372,-347,273,633,254,622,-82,-81,20,,
144,-24,-356,-331,-23,-352,-328,210,625,227,621,-82,-81,20,,
145,-24,-338,-314,-23,-329,-306,230,618,180,609,-82,-81,20,,,,,,,,10,-2,-2,4,
146,-24,-327,-302,-24,-312,-287,136,593,148,588,-82,-81,20,,
147,-21,-304,-283,-25,-299,-274,160,573,154,583,-82,-81,20,,
148,-21,-285,-264,-22,-281,-259,132,567,146,574,-82,-81,20,,
149,-22,-268,-246,-21,-262,-241,133,548,193,550,-82,-81,20,,,,,,,,10,-2,-2,4,
150,-21,-254,-233,-19,-241,-221,180,540,152,532,-82,-81,20,,
151,-22,-243,-221,-21,-228,-207,87,525,72,522,-82,-81,20,,
152,-20,-220,-200,-22,-217,-195,83,524,17,507,-82,-81,20,,,0,,,,,10,-2,-2,4,
153,-19,-202,-182,-20,-203,-183,18,506,-4,507,-82,-81,20,,
154,-18,-189,-170,-18,-182,-163,-79,511,-206,499,-82,-81,20,,
155,-20,-179,-159,-18,-166,-147,-232,488,-241,484,-82,-81,20,,
156,-20,-163,-142,-19,-156,-136,-228,462,-177,461,-82,-81,20,,
157,-16,-146,-129,-19,-144,-124,-99,439,-8,430,-82,-81,20,,
158,-17,-127,-110,-18,-125,-107,77,427,95,429,-82,-81,20,,,,,,,,10,-2,-2,4,
159,-18,-119,-100,-16,-104,-87,64,412,73,396,-82,-81,20,,
160,-16,-104,-87,-17,-92,-74,50,391,-5,386,-82,-81,20,,
161,-17,-86,-69,-18,-81,-62,-70,390,-99,376,-82,-81,20,,
162,-16,-74,-57,-16,-73,-56,-161,382,-154,283,-82,-81,20,,
163,-17,-69,-52,-15,-58,-42,-172,281,-179,190,-82,-81,20,,
164,-17,-64,-46,-14,-46,-31,-182,190,-138,96,-82,-81,20,,,,,,,,10,-2,-2,4,
165,-17,-54,-36,-16,-41,-25,-100,93,-117,1,-82,-81,20,,
166,-15,-41,-26,-16,-46,-30,-125,10,-98,12,-82,-81,20,,
167,-15,-38,-23,-15,-42,-27,-93,9,-132,17,-82,-81,20,,
168,-15,-41,-26,-14,-38,-24,-190,18,-197,11,-82,-81,20,,
169,-15,-44,-29,-12,-28,-16,-200,15,-215,22,-82,-81,20,,
170,-5,-13,-8,-2,-1,1,-192,19,-186,19,-82,-81,20,,
171,7,20,14,12,28,17,-188,18,-152,19,-82,-81,20,,,,,,,,10,-2,-2,4,
172,14,41,28,16,40,25,-125,18,-103,13,-82,-81,20,,
173,9,22,14,10,24,15,-100,20,-70,21,-82,-81,20,,
174,5,10,6,0,-3,-2,-69,12,-65,21,-82,-81,20,,
175,-4,-18,-13,-11,-37,-25,-113,14,-110,17,-82,-81,20,,
176,-14,-36,-21,-15,-40,-24,-126,21,-138,16,-82,-81,20,,
177,-12,-35,-22,-12,-37,-24,-175,28,-269,14,-82,-81,20,,,,,,,,10,-2,-2,4,
178,-15,-42,-26,-14,-36,-21,-301,9,-249,13,-82,-81,20,,
179,-15,-39,-23,-13,-38,-24,-221,20,-244,13,-82,-81,20,,
180,-12,-32,-20,-15,-40,-25,-299,16,-291,14,-82,-81,20,,
181,-13,-34,-21,-21,-30,-9,-251,19,-240,14,-82,-81,20,,
182,79,280,201,194,602,408,-217,12,-203,29,-82,-81,20,,
183,332,905,574,266,535,269,-182,16,-162,19,-82,-81,20,,,,,,,,10,-2,-2,4,
184,26,-44,-69,-119,-328,-208,-105,13,-76,33,-82,-81,20,,
185,-42,-95,-53,-23,-66,-43,-82,28,-83,27,-82,-81,20,,
186,-20,-54,-34,-17,-50,-32,-116,17,-74,17,-82,-81,20,,
187,-18,-53,-35,-18,-48,-30,-86,22,-103,26,-82,-81,20,,
188,-17,-51,-34,-18,-50,-32,-92,29,-99,25,-82,-81,20,,,,,,,,10,-2,-2,4,
189,-18,-46,-28,-19,-54,-35,-123,15,-154,28,-82,-81,20,,
190,-19,-47,-28,-19,-52,-33,-134,22,-143,16,-82,-81,20,,
191,-16,-41,-25,-12,-30,-18,-131,30,-118,18,-82,-81,20,,
192,-13,-34,-21,-10,-21,-11,-172,27,-244,21,-82,-81,20,,
193,-5,-11,-6,1,1,0,-279,20,-342,16,-82,-81,20,,
194,4,13,9,5,13,8,-359,21,-313,24,-82,-81,20,,
195,10,30,20,12,35,23,-272,30,-204,25,-82,-81,20,,,,,,,,9,-2,-2,4,
196,16,47,31,22,66,44,-200,21,-195,18,-82,-81,20,,
197,25,69,44,27,79,52,-186,24,-192,21,-82,-81,20,,
198,35,97,62,42,109,67,-190,18,-212,32,-82,-81,20,,
199,45,125,80,48,131,83,-191,27,-202,21,-82,-81,20,,
200,49,136,87,56,152,96,-179,24,-153,37,-82,-81,20,,
201,56,152,96,60,165,105,-130,25,-181,21,-82,-81,20,,
202,63,166,103,56,149,93,-194,20,-212,25,-82,-81,20,,
203,54,146,92,47,126,79,-213,18,-205,24,-82,-81,20,,,,,,,,9,-2,-2,4,
204,43,112,69,33,85,52,-210,39,-246,27,-82,-81,20,,
205,20,52,32,13,27,14,-265,13,-193,21,-82,-81,20,,
206,-2,-15,-13,-18,-53,-35,-155,20,-89,27,-82,-81,20,,
207,-24,-65,-41,-27,-71,-44,-40,11,-8,12,-82,-81,20,,
208,-26,-65,-39,-27,-70,-43,33,16,77,6,-82,-81,20,,,,,,,,9,-2,-2,4,
209,-25,-66,-41,-23,-61,-38,112,4,104,12,-82,-81,20,,
210,-24,-68,-44,-22,-59,-37,-39,30,-157,35,-82,-81,20,,
211,-22,-62,-40,-24,-63,-39,-163,5,-183,11,-82,-81,20,,
212,-24,-60,-36,-23,-63,-40,-201,12,-178,22,-82,-81,20,,
213,-24,-62,-38,-22,-63,-41,-202,25,-244,6,-82,-81,20,,
214,-23,-62,-39,-21,-55,-34,-264,23,-248,26,-82,-81,20,,,,,,,,9,-2,-2,4,
215,-23,-61,-38,-23,-58,-35,-257,20,-289,22,-82,-81,20,,
216,-21,-57,-36,-22,-61,-39,-322,17,-341,18,-82,-81,20,,
217,-20,-52,-32,-20,-57,-37,-376,14,-359,21,-82,-81,20,,
218,-22,-56,-34,-19,-52,-33,-291,34,-249,16,-82,-81,20,,
219,-20,-58,-38,-19,-49,-30,-254,17,-276,19,-82,-81,20,,
220,-19,-55,-36,-20,-53,-33,-269,6,-235,26,-82,-81,20,,
221,-17,-49,-32,-20,-56,-36,-258,37,-301,29,-82,-81,20,,
222,-18,-49,-31,-17,-49,-32,-303,18,-309,16,-82,-81,20,,
223,-18,-51,-33,-17,-46,-29,-292,-1,-315,-1,-82,-81,20,,,,,,,,9,-2,-2,4,
224,-19,-53,-34,-19,-47,-28,-312,15,-314,23,-82,-81,20,,
225,-20,-50,-30,-19,-48,-29,-306,7,-302,8,-82,-81,20,,
226,-18,-44,-26,-19,-51,-32,-333,7,-328,8,-82,-81,20,,
227,-17,-46,-29,-18,-46,-28,-323,18,-343,6,-82,-81,20,,,,,,,,9,-2,-2,4,
228,-17,-48,-31,-16,-42,-26,-338,6,-337,11,-82,-81,20,,
229,-17,-48,-31,-17,-45,-28,-296,8,-273,10,-82,-81,20,,
230,-16,-42,-26,-18,-48,-30,-267,5,-250,8,-82,-81,20,,
231,-15,-38,-23,-15,-42,-27,-261,-5,-245,-12,-82,-81,20,,
232,-16,-44,-28,-15,-39,-24,-252,-2,-262,-3,-82,-81,20,,
233,-17,-44,-27,-13,-28,-15,-269,11,-238,7,-82,-81,20,,,,,,,,9,-2,-2,4,
234,-6,-15,-9,3,4,1,-223,4,-170,-8,-82,-81,20,,
235,6,21,15,10,28,18,-165,-7,-172,2,-82,-81,20,,
236,16,43,27,15,39,24,-189,-4,-192,-4,-82,-81,20,,
237,9,22,13,8,22,14,-204,-15,-212,-8,-82,-81,20,,
238,3,7,4,-1,-6,-5,-237,-6,-247,-10,-82,-81,20,,
239,-4,-16,-12,-12,-38,-26,-203,-11,-182,-8,-82,-81,20,,
240,-14,-36,-22,-15,-41,-26,-187,-3,-180,-14,-82,-81,20,,
241,-16,-40,-24,-13,-36,-23,-152,-6,-127,-11,-82,-81,20,,
242,-14,-41,-27,-14,-34,-20,-100,-12,-108,-7,-82,-81,20,,,,,,,,9,-2,-2,4,
243,-12,-35,-23,-16,-40,-24,-148,-8,-178,3,-82,-81,20,,
244,-14,-34,-20,-14,-40,-26,-173,-9,-235,-22,-82,-81,20,,
245,-13,-33,-20,-23,-2,22,-226,-17,-176,-20,-82,-81,20,,
246,152,381,230,208,666,458,-159,-19,-160,-23,-82,-81,20,,
247,337,910,573,216,427,212,-137,-20,-109,-23,-82,-81,20,,
248,-6,-117,-111,-123,-305,-181,-102,-13,-123,-17,-82,-81,20,,
249,-38,-89,-50,-25,-67,-41,-117,-24,-119,-19,-82,-81,20,,,,,,,,9,-2,-2,4,
250,-22,-58,-35,-20,-54,-33,-139,-16,-129,-12,-82,-81,20,,
251,-20,-57,-36,-19,-50,-30,-156,-18,-174,-29,-82,-81,20,,
252,-19,-55,-35,-20,-55,-34,-155,-39,-90,-23,-82,-81,20,,
253,-19,-50,-30,-20,-56,-35,-89,-19,-91,-22,-82,-81,20,,
254,-20,-52,-31,-19,-52,-32,-121,-37,-150,-38,-82,-81,20,,
255,-18,-44,-25,-14,-33,-18,-172,-29,-177,-19,-82,-81,20,,,,,,,,9,-2,-2,4,
0,-14,-35,-20,-10,-23,-12,-128,-23,-92,-30,-82,-81,20,,
1,-4,-8,-3,2,0,-1,-100,-20,-129,-30,-82,-81,20,,
2,3,12,10,5,14,10,-110,-24,-143,-23,-82,-81,20,,
3,12,32,21,15,40,26,-175,-21,-184,-24,-82,-81,20,,
4,18,48,31,22,65,44,-216,-28,-146,-35,-82,-81,20,,
5,25,66,42,26,78,53,-105,-30,-147,-15,-82,-81,20,,
6,34,98,65,39,107,69,-174,-19,-173,-37,-82,-81,20,,,,,,,,9,-2,-2,4,
7,44,126,83,48,130,83,-185,-26,-134,-20,-82,-81,20,,
8,51,137,87,57,153,97,-40,-26,-89,-15,-82,-81,20,,
9,57,152,96,60,165,106,-132,-16,-139,-28,-82,-81,20,,
10,63,166,104,57,151,95,-194,-23,-204,-18,-82,-81,20,,
11,56,147,92,47,124,78,-113,-28,-68,-53,-82,-81,20,,
12,40,106,67,33,83,51,-72,-12,-48,-37,-82,-81,20,,
13,15,40,26,9,21,13,-187,-16,-106,-17,-82,-81,20,,,,,,,,9,-2,-2,4,
14,-4,-22,-17,-24,-62,-37,-346,-18,-151,-45,-82,-81,20,,
15,-24,-66,-41,-27,-73,-45,-159,-12,-163,-55,-82,-81,20,,
16,-25,-67,-41,-24,-69,-44,203,-53,361,-20,-82,-81,20,,
17,-26,-69,-42,-24,-66,-41,410,-43,439,-36,-82,-81,20,,
18,-25,-70,-44,-24,-63,-38,437,-35,288,-32,-82,-81,20,,
19,-25,-67,-41,-25,-66,-40,436,-58,435,-35,-82,-81,20,,
20,-21,-58,-36,-22,-64,-41,360,-37,219,-45,-82,-81,20,,,,,,,,9,-2,-2,4,
21,-23,-60,-36,-22,-60,-37,404,-57,278,-44,-82,-81,20,,
22,-23,-62,-38,-21,-56,-34,391,-42,226,-5,-82,-81,20,,
23,-21,-61,-39,-22,-58,-35,265,-48,126,-12,-82,-81,20,,
24,-21,-58,-36,-22,-61,-38,202,-42,154,-12,-82,-81,20,,
25,-21,-53,-31,-21,-57,-35,-96,-10,-8,-24,-82,-81,20,,
26,-19,-55,-35,-19,-51,-31,-242,3,-121,-44,-82,-81,20,,
27,-22,-60,-37,-21,-53,-31,-109,-10,-273,-31,-82,-81,20,,,,,,,,9,-2,-2,4,
28,-18,-52,-33,-21,-56,-34,-92,-17,-118,-33,-82,-81,20,,
29,-20,-52,-31,-18,-53,-34,-181,-5,-242,-31,-82,-81,20,,
30,-22,-51,-28,-19,-51,-31,-357,-23,-361,-22,-82,-81,20,,
31,-21,-53,-31,-18,-46,-27,-369,-16,-394,-11,-82,-81,20,,
32,-18,-52,-33,-17,-47,-29,-418,-18,-490,-10,-82,-81,20,,,,,,,,8,-2,-2,4,
33,-17,-46,-28,-19,-52,-32,-495,-27,-402,-27,-82,-81,20,,
34,-16,-43,-26,-17,-48,-30,-389,-31,-382,-40,-82,-81,20,,
35,-18,-49,-30,-15,-41,-25,-321,-28,-321,-24,-82,-81,20,,
36,-19,-51,-31,-15,-40,-24,-313,-13,-277,-14,-82,-81,20,,
37,-18,-45,-26,-15,-42,-26,-278,-25,-337,-13,-82,-81,20,,
38,-16,-41,-24,-15,-44,-28,-323,-23,-325,-24,-82,-81,20,,
39,-15,-38,-22,-15,-44,-28,-290,-11,-256,-13,-82,-81,20,,,,,,,,8,-2,-2,4,
40,-17,-45,-27,-15,-38,-22,-227,-18,-215,-25,-82,-81,20,,
41,-16,-44,-27,-12,-28,-15,-209,-15,-191,-17,-82,-81,20,,
42,-6,-11,-4,-1,1,3,-207,-9,-234,-12,-82,-81,20,,
43,6,22,17,12,30,19,-303,-13,-321,-11,-82,-81,20,,
44,15,41,27,15,38,24,-360,-5,-386,-9,-82,-81,20,,
45,6,19,14,7,21,15,-378,-6,-367,-8,-82,-81,20,,
46,3,5,3,0,-8,-7,-313,-6,-298,-1,-82,-81,20,,,,,,,,8,-2,-2,4,
47,-6,-21,-14,-15,-42,-26,-319,-1,-294,1,-82,-81,20,,
48,-14,-37,-22,-15,-40,-24,-277,-11,-229,-11,-82,-81,20,,
49,-13,-39,-25,-12,-36,-23,-194,-7,-185,-7,-82,-81,20,,
50,-16,-43,-26,-12,-32,-19,-190,-2,-195,-4,-82,-81,20,,
51,-16,-39,-22,-16,-41,-24,-189,-10,-198,-9,-82,-81,20,,
52,-13,-34,-20,-14,-39,-24,-163,-8,-115,-12,-82,-81,20,,
53,-14,-33,-18,-20,28,48,-100,-12,-99,-11,-82,-81,20,,
54,107,357,250,221,722,502,-106,-8,-126,-3,-82,-81,20,,
55,340,914,575,178,340,162,-126,-3,-133,1,-82,-81,20,,,,,,,,8,-2,-2,4,
56,-27,-174,-146,-124,-271,-147,-122,-19,-160,-11,-82,-81,20,,
57,-34,-82,-48,-23,-63,-40,-161,-6,-96,-11,-82,-81,20,,
58,-18,-53,-35,-17,-48,-31,-98,-9,-120,0,-82,-81,20,,
59,-20,-56,-36,-18,-51,-33,-161,6,-203,9,-82,-81,20,,
60,-18,-52,-34,-18,-55,-37,-227,2,-193,6,-82,-81,20,,,,,,,,8,-2,-2,4,
61,-16,-48,-32,-18,-54,-36,-151,-6,-134,-7,-82,-81,20,,
62,-17,-48,-31,-19,-53,-34,-162,5,-177,4,-82,-81,20,,
63,-16,-39,-23,-11,-29,-18,-155,-6,-118,-18,-82,-81,20,,
64,-10,-29,-19,-8,-20,-12,-158,-21,-182,-5,-82,-81,20,,
65,-2,-3,-1,0,0,0,-164,-8,-136,-17,-82,-81,20,,
66,4,15,11,6,16,10,-112,1,-130,1,-82,-81,20,,
67,11,32,21,14,43,29,-169,7,-210,4,-82,-81,20,,
68,19,51,32,23,67,44,-180,3,-153,-8,-82,-81,20,,,,,,,,8,-2,-2,4,
69,27,72,45,30,83,53,-127,-15,-133,-7,-82,-81,20,,
70,36,103,67,41,111,70,-143,1,-115,-3,-82,-81,20,,
71,48,131,83,48,135,87,-97,9,-73,10,-82,-81,20,,
72,51,139,88,58,156,98,-66,6,-33,-3,-82,-81,20,,
73,58,155,97,60,165,105,-36,8,-36,9,-82,-81,20,,,,,,,,8,-2,-2,4,
74,63,165,102,54,148,94,-88,21,-162,3,-82,-81,20,,
75,52,142,90,47,125,78,-192,8,-272,11,-82,-81,20,,
76,40,103,63,33,81,48,-309,17,-304,15,-82,-81,20,,
77,21,45,24,9,20,11,-303,-3,-273,8,-82,-81,20,,
78,-5,-28,-23,-22,-62,-40,-186,6,-132,16,-82,-81,20,,
79,-24,-64,-40,-26,-71,-45,-150,12,-158,5,-82,-81,20,,
80,-24,-65,-41,-22,-65,-43,-126,3,-98,2,-82,-81,20,,
81,-26,-70,-44,-23,-62,-39,-81,6,-60,9,-82,-81,20,,,,,,,,8,-2,-2,4,
82,-24,-68,-44,-24,-63,-39,-34,-1,-30,7,-82,-81,20,,
83,-23,-63,-40,-24,-68,-44,-50,10,-71,5,-82,-81,20,,
84,-22,-59,-37,-23,-66,-43,-62,0,-45,14,-82,-81,20,,
85,-22,-60,-38,-21,-57,-36,-43,20,-8,8,-82,-81,20,,
86,-24,-64,-40,-20,-56,-36,-3,6,59,7,-82,-81,20,,
87,-21,-61,-40,-22,-58,-36,63,-6,27,-2,-82,-81,20,,
88,-25,-60,-35,-21,-59,-38,25,8,22,7,-82,-81,20,,,,,,,,8,-2,-2,4,
89,-20,-53,-33,-22,-57,-35,-34,9,-106,7,-82,-81,20,,
90,-20,-54,-34,-18,-50,-32,-108,7,-66,4,-82,-81,20,,
91,-19,-56,-37,-19,-51,-32,-86,16,-110,20,-82,-81,20,,
92,-20,-54,-34,-19,-55,-36,-121,18,-99,16,-82,-81,20,,
93,-17,-46,-29,-16,-50,-34,-62,10,-61,13,-82,-81,20,,
94,-19,-49,-30,-17,-48,-31,-66,24,-57,16,-82,-81,20,,
95,-18,-51,-33,-15,-42,-27,-52,19,-48,19,-82,-81,20,,,,,,,,8,-2,-2,4,
96,-17,-50,-33,-18,-47,-29,-7,21,-5,20,-82,-81,20,,
97,-15,-44,-29,-18,-50,-32,-25,19,-75,16,-82,-81,20,,
98,-15,-42,-27,-17,-47,-30,-73,14,-72,14,-82,-81,20,,
99,-17,-45,-28,-14,-41,-27,-84,7,-108,21,-82,-81,20,,
100,-17,-48,-31,-16,-41,-25,-110,26,-140,7,-82,-81,20,,
101,-15,-44,-28,-17,-48,-30,-159,27,-217,23,-82,-81,20,,
102,-13,-39,-25,-14,-45,-30,-207,-5,-135,8,-82,-81,20,,,,,,,,8,-2,-2,4,
103,-15,-42,-26,-15,-42,-26,-135,28,-155,17,-82,-81,20,,
104,-15,-43,-27,-13,-37,-23,-189,18,-121,11,-82,-81,20,,
105,-14,-43,-28,-11,-27,-15,-111,16,-118,25,-82,-81,20,,
106,-2,-7,-4,0,3,4,-167,18,-189,11,-82,-81,20,,
107,7,24,18,13,30,18,-206,-1,-141,-8,-82,-81,20,,
108,15,39,25,15,38,24,-75,-10,-31,-3,-82,-81,20,,
109,10,21,12,10,22,13,8,5,44,-5,-82,-81,20,,,,,,,,8,-2,-2,4,
110,5,4,0,-1,-10,-8,79,3,112,1,-82,-81,20,,
111,-9,-25,-15,-12,-42,-29,89,0,78,11,-82,-81,20,,
112,-13,-36,-22,-13,-40,-26,80,16,129,17,-82,-81,20,,
113,-14,-42,-27,-13,-36,-22,94,32,1,19,-82,-81,20,,
114,-14,-42,-27,-14,-38,-23,-47,24,-83,20,-82,-81,20,,
115,-11,-35,-23,-14,-39,-24,-98,25,-101,32,-82,-81,20,,,,26.1,,,,8,-2,-2,4,
116,-10,-29,-18,-13,-38,-24,-74,28,-49,30,-82,-81,20,,
117,-13,-39,-25,0,71,72,-67,34,-73,30,-82,-81,20,,
118,127,398,272,249,784,536,-75,41,-76,25,-82,-81,20,,
119,341,913,573,144,273,130,-112,21,-122,29,-82,-81,20,,
120,-47,-221,-173,-120,-236,-115,-137,23,-148,31,-82,-81,20,,
121,-26,-72,-45,-22,-61,-39,-123,20,-124,21,-82,-81,20,,,,,,,,8,-2,-2,4,
122,-21,-59,-38,-18,-51,-33,-115,35,-54,19,-82,-81,20,,
123,-21,-59,-38,-20,-52,-32,-2,17,11,28,-82,-81,20,,
124,-16,-51,-35,-20,-56,-36,11,21,5,30,-82,-81,20,,
125,-18,-49,-31,-17,-53,-36,3,22,12,22,-82,-81,20,,
126,-19,-52,-33,-18,-49,-31,-7,32,-12,22,-82,-81,20,,
127,-15,-42,-27,-10,-30,-20,-12,20,-4,28,-82,-81,20,,
128,-10,-30,-20,-7,-20,-13,19,23,24,26,-82,-81,20,,,,,,,,8,-2,-2,4,
129,-3,-3,0,0,1,1,-14,22,-28,26,-82,-81,20,,
130,3,12,9,7,18,11,-42,24,-61,24,-82,-81,20,,
131,10,29,19,16,46,30,-20,36,-62,26,-82,-81,20,,
132,19,51,32,24,68,44,-79,20,-47,30,-82,-81,20,,
133,28,74,46,31,85,54,7,23,-10,26,-82,-81,20,,
134,43,111,68,43,115,72,-64,31,-71,38,-82,-81,20,,
135,48,129,81,51,136,85,-68,32,-67,29,-82,-81,20,,,,,,,,8,-2,-2,4,
136,51,140,89,59,157,98,-82,38,-109,35,-82,-81,20,,
137,57,153,96,61,164,103,-143,29,-178,17,-82,-81,20,,
138,63,164,101,58,148,90,-155,27,-150,21,-82,-81,20,,
139,54,139,85,49,124,75,-138,19,-139,31,-82,-81,20,,
140,40,99,59,33,78,45,-159,37,-152,33,-82,-81,20,,
141,19,41,22,7,14,7,-170,29,-168,30,-82,-81,20,,
142,-6,-32,-26,-21,-64,-43,-165,24,-168,26,-82,-81,20,,
143,-23,-63,-40,-25,-73,-48,-165,38,-165,26,-82,-81,20,,,,,,,,8,-2,-2,4,
144,-23,-65,-42,-22,-67,-45,-143,29,-106,36,-82,-81,20,,
145,-23,-68,-45,-21,-60,-39,-62,33,-72,33,-82,-81,20,,
146,-21,-65,-44,-24,-63,-39,-98,34,-75,20,-82,-81,20,,
147,-22,-63,-41,-25,-69,-44,-23,35,8,32,-82,-81,20,,
148,-22,-59,-37,-23,-66,-43,8,32,-12,34,-82,-81,20,,
149,-21,-60,-39,-20,-59,-39,-75,23,-85,34,-82,-81,20,,
150,-22,-64,-42,-22,-58,-36,-66,37,-65,30,-82,-81,20,,57,,,,,,8,-2,-2,4,
151,-21,-62,-41,-22,-61,-39,-32,27,47,28,-82,-81,20,,
152,-20,-56,-36,-21,-60,-39,91,19,121,24,-82,-81,20,,
153,-21,-56,-35,-20,-56,-36,100,28,124,18,-82,-81,20,,
154,-21,-60,-39,-17,-50,-33,122,33,98,30,-82,-81,20,,
155,-19,-56,-37,-19,-52,-33,66,19,69,28,-82,-81,20,,
156,-20,-54,-34,-19,-55,-36,45,22,25,32,-82,-81,20,,
157,-20,-52,-32,-20,-55,-35,41,26,64,23,-82,-81,20,,
158,-19,-50,-31,-18,-49,-31,113,24,62,20,-82,-81,20,,,,,,,,8,-2,-2,4,
159,-19,-54,-35,-17,-45,-28,21,26,1,25,-82,-81,20,,
160,-20,-52,-32,-18,-50,-32,-11,14,-5,17,-82,-81,20,,
161,-18,-47,-29,-17,-50,-33,44,16,62,28,-82,-81,20,,
162,-16,-43,-27,-16,-47,-31,66,18,45,4,-82,-81,20,,
163,-16,-47,-31,-16,-43,-27,58,10,74,17,-82,-81,20,,
164,-18,-51,-32,-17,-43,-26,54,18,78,18,-82,-81,20,,
165,-15,-45,-29,-16,-46,-30,126,17,124,26,-82,-81,20,,
166,-15,-41,-26,-17,-48,-31,142,17,127,15,-82,-81,20,,,,,,,,8,-2,-2,4,
167,-13,-39,-26,-17,-43,-26,68,13,44,6,-82,-81,20,,
168,-18,-48,-30,-17,-40,-23,27,13,-3,-2,-82,-81,20,,
169,-15,-40,-25,-9,-25,-15,3,5,41,8,-82,-81,20,,
170,-3,-7,-3,-1,1,3,82,7,93,3,-82,-81,20,,
171,8,25,18,13,31,19,99,-1,93,-7,-82,-81,20,,
172,14,38,25,14,35,22,86,6,63,12,-82,-81,20,,
173,7,16,10,7,18,12,13,-1,-45,8,-82,-81,20,,
174,3,2,0,-3,-17,-13,-33,17,-13,0,-82,-81,20,,,,,,,,8,-2,-2,4,
175,-8,-26,-17,-15,-44,-28,22,-9,49,-4,-82,-81,20,,
176,-15,-39,-23,-14,-40,-25,47,-4,53,-3,-82,-81,20,,
177,-16,-45,-28,-14,-37,-22,43,1,40,0,-82,-81,20,,
178,-14,-42,-27,-13,-37,-23,64,-15,54,3,-82,-81,20,,
179,-15,-39,-23,-13,-41,-27,52,-4,49,8,-82,-81,20,,
180,-11,-33,-21,-14,-42,-27,54,1,42,-5,-82,-81,20,,
181,-16,-49,-33,19,126,108,52,-2,50,7,-82,-81,20,,,,,,,,8,-2,-2,4,
182,141,439,298,279,833,555,75,3,81,-18,-82,-81,20,,
183,252,772,521,112,196,85,80,-18,5,-10,-82,-81,20,,
184,-74,-265,-191,-99,-194,-95,9,-16,24,2,-82,-81,20,,
185,-29,-77,-47,-21,-58,-36,41,-10,9,-7,-82,-81,20,,
186,-21,-60,-38,-19,-54,-34,13,-4,42,-18,-82,-81,20,,
187,-19,-59,-39,-20,-54,-33,25,-23,15,-19,-82,-81,20,,,,,,,,8,-2,-2,4,
188,-19,-54,-34,-19,-55,-35,9,-20,20,-15,-82,-81,20,,
189,-18,-51,-32,-20,-55,-34,45,-18,35,-28,-82,-81,20,,
190,-20,-53,-33,-17,-47,-29,51,-23,75,-21,-82,-81,20,,
191,-14,-40,-25,-14,-33,-18,58,-15,11,-16,-82,-81,20,,
192,-10,-29,-18,-9,-22,-12,3,-22,6,-2,-82,-81,20,,
193,1,0,0,2,1,0,17,-14,6,-29,-82,-81,20,,
194,4,13,10,10,21,12,-19,-26,-17,-22,-82,-81,20,,,,,,,,8,-2,-2,4,
195,12,28,17,16,44,29,-5,-12,-53,-22,-82,-81,20,,
196,21,52,32,23,64,42,-86,-19,-42,-25,-82,-81,20,,
197,26,71,46,31,82,52,24,-21,65,-15,-82,-81,20,,
198,37,101,65,43,111,69,46,-13,58,-29,-82,-81,20,,
199,48,129,82,51,135,85,34,-27,45,-29,-82,-81,20,,
200,51,138,88,56,154,99,63,-9,46,-20,-82,-81,20,,
201,60,155,96,61,163,103,50,-6,22,-8,-82,-81,20,,
202,64,162,99,55,144,90,-3,-23,-34,-23,-82,-81,20,,,,,,,,8,-2,-2,4,
203,52,134,83,45,117,73,13,-26,50,-17,-82,-81,20,,
204,34,88,55,30,72,42,66,-1,48,-7,-82,-81,20,,
205,16,33,17,5,8,3,7,-15,27,-20,-82,-81,20,,
206,-18,-47,-29,-25,-70,-45,13,-9,4,-46,-82,-81,20,,
207,-23,-64,-41,-26,-71,-45,-33,-29,-26,-48,-82,-81,20,,
208,-25,-67,-42,-23,-66,-43,-1,-35,-40,-15,-82,-81,20,,
209,-25,-70,-45,-25,-65,-40,-34,-36,-71,-30,-82,-81,20,,
210,-24,-68,-44,-24,-65,-41,-68,-24,-114,-21,-82,-81,20,,41,,,,,,8,-2,-2,4,
211,-22,-62,-40,-24,-68,-44,-122,-35,-182,-48,-82,-81,20,,
212,-22,-61,-39,-22,-65,-43,-252,-40,-318,-39,-82,-81,20,,
213,-25,-66,-41,-20,-58,-38,-318,-51,-369,-51,-82,-81,20,,
214,-22,-65,-43,-20,-57,-37,-434,-53,-459,-55,-82,-81,20,,
215,-22,-62,-40,-22,-63,-41,-502,-59,-539,-61,-82,-81,20,,
216,-21,-57,-36,-21,-63,-42,-557,-65,-553,-70,-82,-81,20,,
217,-20,-57,-37,-23,-59,-36,-527,-69,-549,-61,-82,-81,20,,,,,,,,7,-2,-2,4,
218,-21,-60,-39,-18,-52,-34,-584,-53,-609,-57,-82,-81,20,,
219,-21,-59,-38,-21,-56,-35,-621,-66,-604,-66,-82,-81,20,,
220,-19,-53,-34,-20,-56,-36,-605,-75,-645,-69,-82,-81,20,,
221,-17,-48,-31,-16,-52,-36,-698,-60,-749,-62,-82,-81,20,,
222,-19,-53,-34,-18,-48,-30,-743,-54,-715,-58,-82,-81,20,,
223,-20,-56,-36,-18,-49,-31,-699,-68,-688,-68,-82,-81,20,,
224,-18,-52,-34,-18,-51,-33,-662,-61,-646,-59,-82,-81,20,,
225,-15,-44,-29,-19,-53,-34,-624,-56,-639,-48,-82,-81,20,,,,,,,,7,-2,-2,4,
226,-16,-44,-28,-16,-47,-31,-602,-37,-539,-43,-82,-81,20,,
227,-17,-49,-32,-14,-39,-25,-507,-46,-509,-59,-82,-81,20,,
228,-16,-48,-32,-16,-41,-25,-500,-57,-504,-54,-82,-81,20,,
229,-16,-45,-29,-17,-48,-31,-496,-58,-492,-42,-82,-81,20,,
230,-14,-37,-23,-18,-48,-30,-539,-48,-547,-64,-82,-81,20,,41,,,,,,7,-2,-2,4,
231,-16,-44,-28,-14,-38,-24,-519,-56,-490,-40,-82,-81,20,,
232,-15,-45,-30,-13,-37,-24,-431,-24,-342,-11,-82,-81,20,,
233,-15,-40,-25,-9,-22,-13,-228,2,-115,0,-82,-81,20,,
234,-1,-2,-1,3,6,3,-42,1,47,16,-82,-81,20,,
235,9,29,20,13,32,19,121,44,154,7,-82,-81,20,,
236,15,39,24,16,35,19,171,31,251,28,-82,-81,20,,
237,8,17,9,6,18,12,249,10,253,-1,-82,-81,20,,
238,4,2,-2,-6,-20,-14,243,24,220,4,-82,-81,20,,,,,,,,7,-2,-2,4,
239,-9,-28,-19,-16,-45,-29,201,2,215,41,-82,-81,20,,
240,-16,-42,-26,-13,-38,-25,138,10,110,2,-82,-81,20,,
241,-16,-43,-27,-12,-35,-23,136,18,158,25,-82,-81,20,,
242,-13,-41,-28,-14,-37,-23,165,16,149,-12,-82,-81,20,,
243,-12,-35,-23,-14,-43,-29,160,9,183,10,-82,-81,20,,
244,-12,-33,-21,-14,-39,-25,176,8,150,11,-82,-81,20,,
245,-13,-50,-37,34,173,139,142,14,208,1,-82,-81,20,,,,,,,,7,-2,-2,4,
246,156,481,326,304,869,566,238,4,222,12,-82,-81,20,,
247,341,777,437,86,114,29,182,-2,183,6,-82,-81,20,,
248,-93,-294,-200,-76,-156,-79,184,9,153,24,-82,-81,20,,
249,-28,-73,-44,-21,-57,-35,123,-3,146,4,-82,-81,20,,
250,-21,-59,-37,-19,-53,-33,168,3,132,6,-82,-81,20,,
251,-20,-57,-36,-21,-56,-34,133,9,106,16,-82,-81,20,,
252,-19,-53,-33,-20,-56,-35,65,7,72,4,-82,-81,20,,
253,-17,-48,-30,-17,-51,-33,74,5,93,16,-82,-81,20,,
254,-19,-52,-32,-15,-42,-26,125,16,122,11,-82,-81,20,,
255,-14,-39,-24,-10,-30,-19,115,9,84,3,-82,-81,20,,,,,,,,7,-2,-2,4,
0,-8,-27,-18,-6,-18,-11,103,6,121,27,-82,-81,20,,
1,0,2,3,3,4,2,119,22,157,8,-82,-81,20,,
2,7,16,10,9,22,14,185,15,158,8,-82,-81,20,,
3,10,27,18,18,50,33,155,9,122,9,-82,-81,20,,
4,21,55,35,27,67,41,131,15,159,18,-82,-81,20,,
5,30,79,50,33,86,54,144,-5,126,0,-82,-81,20,,,,,,,,7,-2,-2,4,
6,40,107,68,45,117,73,157,2,135,4,-82,-81,20,,
7,49,127,79,52,138,87,124,5,88,0,-82,-81,20,,
8,54,143,90,59,158,100,96,9,90,7,-82,-81,20,,
9,58,157,100,60,161,102,60,-4,41,-5,-82,-81,20,,
10,61,160,100,55,143,89,19,2,13,9,-82,-81,20,,
11,53,135,83,47,117,71,83,8,104,11,-82,-81,20,,
12,36,91,56,29,68,40,100,7,119,11,-82,-81,20,,
13,15,31,17,4,1,-2,166,0,167,3,-82,-81,20,,
14,-10,-40,-29,-23,-68,-44,163,20,120,23,-82,-81,20,,
15,-23,-65,-41,-25,-72,-46,98,14,98,18,-82,-81,20,,,,,,,,7,-2,-2,4,
16,-23,-63,-39,-22,-63,-40,111,22,95,19,-82,-81,20,,,,,,,,7,-2,-2,4,
17,-24,-70,-45,-23,-63,-39,102,13,86,16,-82,-81,20,,
18,-23,-67,-43,-24,-64,-39,75,12,66,20,-82,-81,20,,
19,-22,-63,-40,-22,-65,-42,83,17,73,35,-82,-81,20,,
20,-21,-59,-37,-19,-59,-39,63,19,54,25,-82,-81,20,,
21,-21,-60,-38,-20,-58,-37,66,16,70,17,-82,-81,20,,
22,-21,-63,-41,-21,-57,-35,47,28,40,15,-82,-81,20,,,,,,,,7,-2,-2,4,
23,-19,-57,-37,-22,-60,-37,34,10,37,19,-82,-81,20,,
24,-20,-55,-34,-20,-60,-39,64,24,72,25,-82,-81,20,,
25,-21,-56,-34,-19,-55,-35,59,41,63,18,-82,-81,20,,
26,-19,-57,-37,-17,-50,-32,38,25,62,34,-82,-81,20,,
27,-17,-57,-39,-18,-52,-33,56,16,44,21,-82,-81,20,,
28,-17,-52,-34,-19,-57,-37,36,26,81,21,-82,-81,20,,
29,-17,-49,-31,-15,-52,-36,101,12,135,16,-82,-81,20,,44,,,,,,7,-2,-2,4,
30,-16,-49,-32,-16,-47,-30,140,21,156,8,-82,-81,20,,
31,-17,-54,-36,-18,-46,-27,147,11,156,28,-82,-81,20,,
32,-15,-48,-32,-18,-50,-31,166,15,162,19,-82,-81,20,,
33,-16,-44,-27,-15,-50,-34,149,26,121,19,-82,-81,20,,
34,-16,-44,-27,-16,-46,-29,72,20,74,26,-82,-81,20,,
35,-14,-45,-30,-14,-41,-26,103,19,97,24,-82,-81,20,,
36,-16,-49,-32,-14,-42,-27,86,19,107,18,-82,-81,20,,,,,,,,7,-2,-2,4,
37,-14,-42,-27,-15,-47,-31,96,19,130,15,-82,-81,20,,
38,-14,-39,-24,-14,-44,-29,132,26,162,17,-82,-81,20,,
39,-15,-41,-25,-14,-41,-26,164,19,138,18,-82,-81,20,,
40,-14,-42,-27,-14,-39,-24,111,12,89,20,-82,-81,20,,
41,-12,-35,-22,-10,-24,-13,105,26,130,34,-82,-81,20,,
42,0,-1,0,5,9,5,141,36,174,27,-82,-81,20,,
43,10,28,19,16,38,23,173,35,149,23,-82,-81,20,,,,,,,,7,-2,-2,4,
44,15,37,23,15,35,21,107,35,111,33,-82,-81,20,,
45,8,17,10,9,17,9,165,35,146,20,-82,-81,20,,
46,4,1,-2,-4,-19,-14,107,30,97,19,-82,-81,20,,
47,-7,-27,-19,-14,-42,-28,95,26,85,31,-82,-81,20,,
48,-14,-39,-25,-14,-39,-25,65,26,75,20,-82,-81,20,,
49,-15,-43,-28,-12,-34,-22,87,25,78,23,-82,-81,20,,
50,-14,-40,-26,-15,-39,-24,72,23,20,36,-82,-81,20,,
51,-12,-34,-22,-14,-40,-26,-9,36,5,26,-82,-81,20,,
52,-13,-32,-19,-10,-34,-24,31,33,29,27,-82,-81,20,,,,,,,,7,-2,-2,4,
53,-16,-56,-40,49,214,166,44,35,52,24,-82,-81,20,,
54,165,514,349,320,893,573,92,36,115,41,-82,-81,20,,
55,336,697,362,67,49,-18,123,29,142,23,-82,-81,20,,
56,-105,-310,-205,-60,-128,-68,135,34,144,42,-82,-81,20,,
57,-28,-70,-42,-20,-55,-35,145,39,144,41,-82,-81,20,,
58,-21,-57,-36,-19,-50,-31,178,34,180,28,-82,-81,20,,
59,-17,-54,-37,-19,-52,-33,137,35,141,44,-82,-81,20,,
60,-18,-51,-33,-19,-55,-36,170,35,184,34,-82,-81,20,,
61,-18,-47,-29,-18,-53,-35,181,42,173,27,-82,-81,20,,,,,,,,7,-2,-2,4,
62,-19,-50,-31,-16,-42,-26,140,40,112,42,-82,-81,20,,
63,-12,-38,-26,-10,-29,-19,131,43,127,37,-82,-81,20,,
64,-7,-24,-17,-6,-16,-10,97,27,64,41,-82,-81,20,,
65,2,3,1,4,4,0,52,47,32,43,-82,-81,20,,
66,6,16,10,9,26,17,-15,35,-21,33,-82,-81,20,,
67,12,30,18,18,54,36,-26,34,-12,34,-82,-81,20,,
68,22,56,35,25,68,44,-46,30,-45,35,-82,-81,20,,
69,29,79,51,33,88,56,-19,50,-28,48,-82,-81,20,,43,,,,,,7,-2,-2,4,
70,40,110,71,44,118,75,-44,43,-73,34,-82,-81,20,,
71,49,129,81,50,136,87,-78,46,-52,33,-82,-81,20,,
72,55,144,90,59,158,100,-15,42,1,43,-82,-81,20,,
73,61,161,101,61,165,105,10,39,26,38,-82,-81,20,,
74,60,159,100,57,143,87,45,28,57,41,-82,-81,20,,
75,50,132,83,47,115,69,81,38,93,34,-82,-81,20,,,,,,,,7,-2,-2,4,
76,35,86,52,27,66,40,69,49,50,46,-82,-81,20,,
77,15,28,14,3,-4,-6,69,28,85,41,-82,-81,20,,
78,-12,-45,-33,-25,-69,-44,82,38,128,31,-82,-81,20,,
79,-26,-66,-40,-24,-69,-45,167,39,155,37,-82,-81,20,,
80,-25,-66,-41,-24,-65,-41,164,42,130,38,-82,-81,20,,
81,-25,-70,-45,-25,-63,-38,81,37,77,42,-82,-81,20,,
82,-25,-66,-41,-24,-64,-40,100,31,59,38,-82,-81,20,,
83,-24,-62,-38,-24,-68,-44,61,27,60,38,-82,-81,20,,
84,-24,-59,-35,-23,-62,-39,58,40,95,35,-82,-81,20,,
85,-24,-63,-39,-22,-59,-37,112,41,113,40,-82,-81,20,,,,,,,,7,-2,-2,4,
86,-23,-63,-40,-22,-59,-37,70,23,51,25,-82,-81,20,,
87,-21,-59,-38,-23,-62,-39,51,26,81,31,-82,-81,20,,
88,-20,-54,-34,-22,-60,-38,101,27,122,26,-82,-81,20,,
89,-20,-55,-35,-20,-54,-34,144,26,158,28,-82,-81,20,,
90,-22,-58,-36,-20,-54,-34,127,40,97,31,-82,-81,20,,
91,-20,-57,-37,-22,-56,-34,102,27,127,25,-82,-81,20,,,,,,,,7,-2,-2,4,
92,-20,-53,-33,-22,-58,-36,129,19,117,26,-82,-81,20,,,,,,,,7,-2,-2,4,
93,-18,-48,-30,-19,-52,-33,87,19,35,10,-82,-81,20,,
94,-18,-52,-34,-18,-49,-31,35,24,49,22,-82,-81,20,,
95,-19,-54,-35,-19,-49,-30,85,12,114,15,-82,-81,20,,
96,-18,-51,-33,-20,-53,-33,74,4,26,9,-82,-81,20,,
97,-20,-47,-27,-18,-51,-33,45,16,68,19,-82,-81,20,,,,,,,,7,-2,-2,4,
98,-18,-47,-29,-15,-46,-31,47,32,67,24,-82,-81,20,,
99,-19,-51,-32,-16,-41,-25,84,19,61,16,-82,-81,20,,
100,-18,-49,-31,-18,-46,-28,59,5,30,8,-82,-81,20,,
101,-15,-41,-26,-17,-47,-30,1,10,-21,12,-82,-81,20,,
102,-16,-42,-26,-18,-45,-27,-30,-3,-36,0,-82,-81,20,,
103,-16,-43,-27,-16,-41,-25,-12,0,10,-4,-82,-81,20,,
104,-17,-48,-31,-15,-40,-25,25,0,10,9,-82,-81,20,,,,,,,,7,-2,-2,4,
105,-15,-37,-22,-9,-21,-12,45,1,33,14,-82,-81,20,,
106,-1,2,3,4,10,6,-29,-3,-14,-5,-82,-81,20,,
107,12,32,20,11,34,23,5,-5,-15,6,-82,-81,20,,
108,13,36,23,13,31,18,-22,3,-44,-3,-82,-81,20,,
109,6,14,8,3,10,7,-10,-10,-14,4,-82,-81,20,,
110,-1,-5,-4,-8,-24,-16,-25,12,-50,-4,-82,-81,20,,
111,-12,-33,-21,-18,-46,-28,-64,-6,-64,-1,-82,-81,20,,,,,,,,7,-2,-2,4,
112,-16,-41,-25,-14,-37,-23,-67,-2,-34,-3,-82,-81,20,,
113,-16,-44,-28,-13,-35,-22,-22,-4,19,-6,-82,-81,20,,,,,,,,7,-2,-2,4,
114,-15,-41,-26,-16,-40,-24,14,-9,23,-4,-82,-81,20,,
115,-14,-35,-21,-16,-41,-25,-25,-6,-59,-9,-82,-81,20,,
116,-14,-36,-22,-13,-36,-23,-18,-6,16,-11,-82,-81,20,,
117,3,-25,-28,70,260,190,10,-1,-2,-7,-82,-81,20,,
118,182,555,374,329,904,576,4,-6,45,-3,-82,-81,20,,
119,294,594,301,39,-17,-55,34,-9,35,-12,-82,-81,20,,
120,-114,-322,-208,-50,-111,-60,0,-12,-23,-18,-82,-81,20,,,,,,,,7,-2,-2,4,
121,-27,-66,-38,-20,-54,-33,-41,-32,-29,-27,-82,-81,20,,
122,-23,-60,-36,-19,-50,-30,-17,-26,-7,-15,-82,-81,20,,
123,-20,-55,-34,-21,-56,-34,14,-20,37,-15,-82,-81,20,,
124,-19,-51,-31,-21,-58,-36,58,-15,16,-14,-82,-81,20,,
125,-20,-49,-28,-20,-53,-32,-20,-12,29,-13,-82,-81,20,,
126,-19,-53,-33,-15,-39,-23,6,-12,-13,-37,-82,-81,20,,
127,-13,-36,-22,-12,-29,-16,-18,-26,5,-14,-82,-81,20,,,,,,,,7,-2,-2,4,
128,-8,-24,-15,-6,-16,-9,16,-30,55,-7,-82,-81,20,,,,,,,,7,-2,-2,4,
129,-2,1,4,2,3,2,48,-43,93,-27,-82,-81,20,,
130,6,17,12,8,27,20,71,-42,58,-24,-82,-81,20,,
131,10,30,21,14,47,34,-8,-31,30,-40,-82,-81,20,,
132,20,56,37,23,65,43,24,-19,-7,-16,-82,-81,20,,
133,26,79,54,29,86,58,30,-37,121,-15,-82,-81,20,,
134,37,110,74,43,118,76,55,-16,-54,-20,-82,-81,20,,
135,45,129,85,47,133,87,-146,-23,-220,-30,-82,-81,20,,
136,52,139,88,56,154,99,-268,-30,-274,-35,-82,-81,20,,,,,,,,7,-2,-2,4,
137,59,161,103,59,161,103,-338,-27,-374,-15,-82,-81,20,,
138,59,156,98,53,138,86,-398,-4,-394,-5,-82,-81,20,,
139,46,127,82,43,113,71,-396,-5,-407,-24,-82,-81,20,,
140,30,79,50,23,58,36,-411,-25,-333,-29,-82,-81,20,,
141,10,20,11,-2,-12,-9,-259,-14,-350,3,-82,-81,20,,
142,-17,-53,-35,-27,-73,-45,-439,-8,-460,-2,-82,-81,20,,
143,-25,-65,-39,-27,-71,-43,-525,-9,-632,-23,-82,-81,20,,
144,-24,-67,-42,-25,-66,-40,-616,-20,-420,-43,-82,-81,20,,,,,,,,7,-2,-2,4,
145,-25,-70,-44,-24,-64,-39,-229,-27,-191,-11,-82,-81,20,,
146,-24,-65,-40,-24,-65,-40,-238,-7,-206,-26,-82,-81,20,,
147,-22,-60,-37,-25,-69,-43,-206,-20,-217,-10,-82,-81,20,,
148,-23,-60,-36,-21,-60,-38,-240,-22,-151,-19,-82,-81,20,,
149,-24,-64,-39,-20,-56,-35,-142,-19,-78,-15,-82,-81,20,,
150,-21,-63,-41,-23,-59,-35,-121,-10,-117,-31,-82,-81,20,,
151,-22,-59,-36,-23,-64,-40,-127,-12,-88,-19,-82,-81,20,,,,,,,,7,-2,-2,4,
152,-20,-54,-33,-21,-59,-37,-48,-32,-54,-30,-82,-81,20,,
153,-20,-54,-33,-19,-53,-33,-34,-10,-23,-6,-82,-81,20,,,,,,,,7,-2,-2,4,
154,-21,-59,-37,-19,-52,-32,-25,3,18,-18,-82,-81,20,,
155,-20,-57,-36,-19,-54,-34,40,-35,54,-14,-82,-81,20,,
156,-19,-50,-30,-19,-56,-36,54,-3,35,-8,-82,-81,20,,
157,-19,-50,-30,-18,-52,-33,17,-7,48,-6,-82,-81,20,,
158,-19,-52,-32,-18,-48,-29,36,-16,-6,-24,-82,-81,20,,
159,-19,-53,-33,-19,-48,-28,43,-25,72,-21,-82,-81,20,,
160,-17,-47,-29,-19,-51,-31,71,-20,132,-14,-82,-81,20,,,,,,,,7,-2,-2,4,
161,-17,-45,-27,-18,-51,-32,127,-17,84,-35,-82,-81,20,,
162,-19,-45,-25,-17,-45,-27,26,-33,43,-27,-82,-81,20,,
163,-19,-51,-31,-16,-41,-24,171,-19,321,-16,-82,-81,20,,
164,-16,-47,-30,-18,-46,-27,454,-13,538,-17,-82,-81,20,,
165,-14,-41,-26,-16,-47,-30,625,-21,671,-17,-82,-81,20,,
166,-14,-38,-23,-15,-43,-27,699,-25,698,-24,-82,-81,20,,
167,-15,-44,-28,-13,-39,-25,696,-22,694,-27,-82,-81,20,,,,,,,,7,-2,-2,4,
168,-16,-45,-28,-15,-41,-25,690,-13,689,-5,-82,-81,20,,
169,-11,-30,-18,-7,-20,-12,686,-18,682,-9,-82,-81,20,,
170,1,6,6,4,13,10,682,-12,679,-13,-82,-81,20,,
171,12,33,22,15,39,25,676,-5,674,-11,-82,-81,20,,
172,13,35,23,11,31,21,672,-5,670,-16,-82,-81,20,,
173,9,17,9,3,9,7,667,-16,663,-22,-82,-81,20,,
174,2,0,-1,-7,-23,-15,662,-15,659,-21,-82,-81,20,,
175,-13,-35,-21,-15,-42,-26,656,-18,654,-18,-82,-81,20,,,,,,,,7,-2,-2,4,
176,-15,-41,-25,-13,-35,-21,651,-8,647,-18,-82,-81,20,,,,,,,,7,-2,-2,4,
177,-15,-44,-28,-13,-35,-21,647,-13,642,-21,-82,-81,20,,
178,-13,-39,-25,-14,-40,-25,640,-24,637,-22,-82,-81,20,,
179,-13,-35,-21,-12,-38,-25,634,-26,632,-15,-82,-81,20,,
180,-11,-33,-21,-12,-36,-23,629,-6,626,-13,-82,-81,20,,
181,-21,-20,2,89,307,219,623,-17,619,-17,-82,-81,20,,
182,199,620,422,334,908,575,555,-18,587,-12,-82,-81,20,,
183,243,484,242,9,-82,-91,606,-7,594,0,-82,-81,20,,,,25.9,,,,7,-2,-2,4,
184,-118,-310,-192,-38,-94,-56,573,-3,568,-5,-82,-81,20,,
185,-26,-66,-40,-19,-54,-34,576,-6,566,-5,-82,-81,20,,
186,-20,-58,-38,-19,-51,-32,551,-2,525,-3,-82,-81,20,,
187,-18,-53,-35,-18,-52,-34,548,-12,571,-3,-82,-81,20,,
188,-17,-48,-30,-17,-54,-36,540,-2,530,-9,-82,-81,20,,
189,-17,-48,-30,-18,-51,-32,559,1,545,-8,-82,-81,20,,
190,-17,-50,-32,-14,-35,-20,526,-1,488,-12,-82,-81,20,,62,21,,,,,7,-2,-2,4,
191,-12,-36,-23,-11,-29,-17,457,-13,470,-14,-82,-81,20,,
192,-7,-21,-13,-4,-12,-7,498,-7,505,-7,-82,-81,20,,
193,2,6,5,5,10,6,462,-3,420,9,-82,-81,20,,
194,7,19,13,12,32,21,385,5,368,-2,-82,-81,20,,
195,14,37,24,21,57,37,363,8,362,13,-82,-81,20,,
196,24,61,38,26,68,43,391,0,386,9,-82,-81,20,,
197,30,84,55,34,92,59,347,0,286,-2,-82,-81,20,,
198,41,115,75,46,124,79,273,-3,285,-9,-82,-81,20,,,,,,,,7,-2,-2,4,
199,48,129,82,51,141,91,332,11,360,1,-82,-81,20,,
200,57,147,91,58,159,102,368,-10,338,4,-82,-81,20,,
201,62,163,102,63,164,102,340,2,371,8,-82,-81,20,,
202,59,157,99,56,140,85,387,1,345,4,-82,-81,20,,
203,51,133,83,46,112,67,312,8,283,5,-82,-81,20,,,,,,,,7,-2,-2,4,
204,34,82,49,25,58,34,232,11,198,8,-82,-81,20,,
205,13,23,11,-1,-13,-11,210,-3,210,5,-82,-81,20,,
206,-15,-48,-32,-25,-70,-44,216,-8,226,-7,-82,-81,20,,
207,-20,-60,-39,-23,-68,-44,214,-5,248,14,-82,-81,20,,
208,-22,-64,-41,-22,-61,-38,239,13,227,7,-82,-81,20,,
209,-24,-68,-43,-21,-61,-39,195,11,154,13,-82,-81,20,,
210,-22,-64,-41,-22,-64,-41,151,0,135,4,-82,-81,20,,,21,,,,,7,-2,-2,4,
211,-20,-55,-34,-22,-64,-41,100,11,105,3,-82,-81,20,,
212,-21,-59,-37,-20,-59,-38,141,5,147,4,-82,-81,20,,
213,-21,-63,-41,-18,-53,-34,136,6,142,-7,-82,-81,20,,
214,-19,-60,-40,-18,-54,-35,134,-4,144,14,-82,-81,20,,
215,-20,-56,-35,-20,-59,-38,162,7,168,4,-82,-81,20,,
216,-17,-50,-32,-20,-59,-38,143,0,155,0,-82,-81,20,,
217,-19,-56,-36,-19,-52,-32,187,-3,196,-3,-82,-81,20,,
218,-19,-57,-37,-18,-51,-32,195,2,194,10,-82,-81,20,,,,,,,,7,-2,-2,4,
219,-20,-57,-36,-19,-53,-33,175,11,190,13,-82,-81,20,,
220,-16,-49,-32,-19,-55,-35,158,-6,141,-8,-82,-81,20,,
221,-18,-51,-32,-17,-50,-32,145,-6,118,3,-82,-81,20,,
222,-18,-51,-32,-16,-45,-28,89,16,81,3,-82,-81,20,,,,,,,,7,-2,-2,4,
223,-17,-53,-35,-18,-48,-29,70,10,40,16,-82,-81,20,,
224,-16,-49,-32,-18,-52,-33,55,6,68,12,-82,-81,20,,
225,-18,-46,-27,-16,-49,-32,91,12,114,15,-82,-81,20,,
226,-17,-46,-29,-16,-46,-30,141,8,151,10,-82,-81,20,,
227,-18,-50,-32,-17,-43,-26,136,20,112,20,-82,-81,20,,
228,-16,-46,-30,-18,-46,-28,105,19,139,31,-82,-81,20,,,,,,,,7,-2,-2,4,
229,-15,-40,-25,-17,-49,-32,189,20,206,28,-82,-81,20,,
230,-16,-40,-24,-15,-43,-28,158,21,143,13,-82,-81,20,,
231,-17,-45,-28,-14,-37,-23,97,29,77,24,-82,-81,20,,
232,-17,-46,-29,-17,-41,-24,44,18,47,24,-82,-81,20,,
233,-11,-29,-18,-7,-13,-6,92,20,109,32,-82,-81,20,,
234,2,8,6,7,16,9,113,22,90,21,-82,-81,20,,
235,11,33,22,15,40,25,81,15,85,28,-82,-81,20,,,,,,,,7,-2,-2,4,
236,16,38,22,11,31,20,150,12,127,22,-82,-81,20,,
237,8,18,10,3,9,6,62,23,53,32,-82,-81,20,,
238,-5,-8,-3,-8,-25,-17,55,20,49,21,-82,-81,20,,
239,-12,-34,-22,-16,-41,-25,53,20,94,27,-82,-81,20,,
240,-16,-42,-26,-14,-37,-23,106,17,69,13,-82,-81,20,,
241,-15,-43,-28,-14,-35,-21,76,24,50,13,-82,-81,20,,
242,-13,-38,-25,-15,-41,-26,61,11,102,22,-82,-81,20,,,,,,,,7,-2,-2,4,
243,-11,-30,-19,-15,-39,-24,132,16,144,15,-82,-81,20,,
244,-12,-34,-22,-13,-36,-23,113,13,87,14,-82,-81,20,,
245,-24,9,33,100,347,247,81,24,86,22,-82,-81,20,,
246,211,688,477,337,917,580,41,38,-13,20,-82,-81,20,,
247,199,388,190,-18,-150,-131,30,26,31,28,-82,-81,20,,
248,-122,-280,-157,-35,-88,-52,56,25,116,7,-82,-81,20,,,,,,,,7,-2,-2,4,
249,-23,-61,-37,-18,-50,-31,97,21,139,19,-82,-81,20,,115,,,,,,7,-2,-2,4,
250,-20,-56,-35,-18,-48,-29,112,25,160,19,-82,-81,20,,
251,-17,-50,-32,-20,-54,-33,145,10,150,23,-82,-81,20,,
252,-18,-48,-29,-19,-55,-35,189,13,217,26,-82,-81,20,,
253,-16,-46,-29,-17,-48,-30,286,18,341,17,-82,-81,20,,
254,-17,-51,-33,-11,-31,-19,261,37,41,41,-82,-81,20,,,,,,,,7,-2,-2,4,
255,-13,-35,-21,-11,-28,-16,-123,40,-277,37,-82,-81,20,,,,,,,,7,-2,-2,4,
0,-7,-20,-12,-3,-9,-6,-339,16,-284,21,-82,-81,20,,
1,1,8,7,3,8,5,-256,41,-322,44,-82,-81,20,,
2,8,21,13,12,33,21,-445,40,-559,45,-82,-81,20,,
3,13,37,24,21,59,38,-662,54,-749,49,-82,-81,20,,
4,24,63,39,24,68,44,-796,46,-867,46,-82,-81,20,,
5,32,89,57,33,94,61,-909,38,-859,15,-82,-81,20,,,,,,,,7,-2,-2,4,
6,41,115,74,47,128,81,-786,43,-737,28,-82,-81,20,,
7,47,130,83,51,142,91,-668,38,-634,24,-82,-81,20,,
8,55,145,90,56,156,100,-544,33,-478,30,-82,-81,20,,
9,61,163,102,61,163,102,-441,35,-475,19,-82,-81,20,,
10,58,157,99,53,137,84,-461,23,-452,24,-82,-81,20,,
11,47,128,81,45,109,64,-422,32,-351,19,-82,-81,20,,
12,32,78,46,21,53,32,-301,32,-317,20,-82,-81,20,,,,,,,,7,-2,-2,4,
13,9,18,9,-2,-18,-16,-312,8,-344,16,-82,-81,20,,
14,-18,-56,-38,-26,-71,-45,-389,15,-391,20,-82,-81,20,,
15,-23,-63,-40,-23,-66,-43,-371,22,-364,10,-82,-81,20,,
16,-26,-67,-41,-21,-57,-36,-340,17,-347,15,-82,-81,20,,
17,-26,-70,-44,-24,-61,-37,-409,23,-415,32,-82,-81,20,,
18,-24,-66,-42,-24,-65,-41,-399,20,-375,27,-82,-81,20,,
19,-20,-56,-36,-23,-64,-41,-317,13,-314,30,-82,-81,20,,
20,-22,-57,-35,-22,-59,-37,-276,22,-299,20,-82,-81,20,,
21,-24,-62,-38,-21,-55,-34,-333,27,-339,21,-82,-81,20,,,,,,,,7,-2,-2,4,
22,-21,-59,-38,-20,-56,-36,-308,16,-292,17,-82,-81,20,,
23,-20,-55,-35,-22,-60,-38,-311,15,-315,15,-82,-81,20,,
24,-20,-52,-32,-22,-58,-36,-294,27,-270,21,-82,-81,20,,
25,-21,-56,-35,-19,-51,-32,-262,27,-309,33,-82,-81,20,,
26,-18,-56,-38,-19,-50,-31,-337,29,-309,28,-82,-81,20,,
27,-17,-52,-35,-20,-55,-35,-280,15,-285,21,-82,-81,20,,
28,-18,-49,-31,-18,-54,-36,-297,21,-329,21,-82,-81,20,,,,,,,,7,-2,-2,4,
29,-20,-50,-30,-16,-47,-31,-343,17,-363,17,-82,-81,20,,
30,-19,-52,-33,-17,-45,-28,-346,22,-341,25,-82,-81,20,,
31,-18,-51,-33,-17,-48,-31,-352,10,-363,15,-82,-81,20,,
32,-19,-48,-29,-19,-52,-33,-348,-1,-299,10,-82,-81,20,,
33,-16,-42,-26,-17,-47,-30,-285,10,-255,9,-82,-81,20,,
34,-17,-45,-28,-14,-41,-27,-242,21,-235,17,-82,-81,20,,
35,-17,-48,-31,-15,-41,-26,-261,17,-270,6,-82,-81,20,,,,,,,,7,-2,-2,4,
36,-16,-45,-28,-17,-46,-28,-279,6,-314,6,-82,-81,20,,
37,-17,-43,-25,-16,-46,-29,-305,-3,-305,4,-82,-81,20,,
38,-16,-42,-25,-16,-44,-27,-318,13,-277,4,-82,-81,20,,
39,-17,-45,-27,-15,-38,-22,-248,4,-266,11,-82,-81,20,,
40,-15,-44,-28,-17,-42,-24,-279,9,-253,2,-82,-81,20,,
41,-6,-23,-16,-5,-15,-9,-209,6,-163,4,-82,-81,20,,
42,0,6,7,5,15,11,-179,2,-211,-10,-82,-81,20,,,,,,,,7,-2,-2,4,
43,11,30,20,15,39,25,-260,9,-263,-9,-82,-81,20,,
44,14,34,21,12,30,19,-266,-4,-266,2,-82,-81,20,,
45,6,14,9,2,5,4,-258,-12,-283,-13,-82,-81,20,,
46,-2,-9,-6,-9,-32,-22,-295,-13,-287,5,-82,-81,20,,
47,-13,-37,-23,-15,-43,-27,-269,-9,-258,-20,-82,-81,20,,
48,-17,-44,-26,-13,-36,-22,-235,-8,-234,-17,-82,-81,20,,
49,-15,-44,-28,-15,-39,-23,-238,-10,-257,-1,-82,-81,20,,
50,-13,-40,-26,-15,-44,-28,-231,-12,-208,-15,-82,-81,20,,
51,-13,-35,-21,-15,-44,-28,-228,-4,-204,-18,-82,-81,20,,,,,,,,7,-2,-2,4,
52,-14,-35,-20,-13,-37,-23,-192,-13,-202,-15,-82,-81,20,,
53,-15,39,55,118,384,267,-213,-11,-232,-19,-82,-81,20,,
54,231,744,514,338,913,576,-237,-7,-250,0,-82,-81,20,,
55,166,311,146,-40,-204,-163,-242,-16,-249,-18,-82,-81,20,,
56,-123,-248,-124,-33,-83,-49,-199,-9,-171,-12,-82,-81,20,,
57,-23,-62,-38,-19,-51,-31,-169,-3,-192,-12,-82,-81,20,,
58,-19,-57,-37,-19,-50,-30,-172,-10,-147,-18,-82,-81,20,,,,,,,,7,-2,-2,4,
59,-18,-52,-33,-21,-55,-33,-168,-30,-177,-17,-82,-81,20,,
60,-18,-49,-30,-20,-57,-36,-201,-15,-218,-13,-82,-81,20,,
61,-18,-50,-31,-17,-51,-33,-237,-20,-219,-25,-82,-81,20,,
62,-19,-55,-35,-13,-34,-20,-220,-19,-206,-18,-82,-81,20,,,,,,,,7,-2,-2,4,
63,-13,-38,-24,-10,-27,-16,-208,-12,-162,-3,-82,-81,20,,
64,-6,-18,-11,-3,-9,-5,-134,-10,-75,-14,-82,-81,20,,
65,2,6,5,5,10,6,-73,-32,-71,-26,-82,-81,20,,
66,4,16,13,12,31,20,-102,-24,-132,-22,-82,-81,20,,
67,17,39,23,20,58,39,-113,-8,-151,-27,-82,-81,20,,
68,23,61,39,27,70,44,-151,-33,-176,-24,-82,-81,20,,,,,,,,7,-2,-2,4,
69,31,86,56,36,95,60,-190,-17,-193,-15,-82,-81,20,,
70,43,116,74,49,127,79,-234,-13,-252,-17,-82,-81,20,,
71,50,134,84,51,143,92,-253,-6,-232,-16,-82,-81,20,,
72,55,144,89,58,158,100,-183,-16,-153,-20,-82,-81,20,,
73,61,163,102,61,159,98,-141,-15,-139,-16,-82,-81,20,,
74,59,156,97,53,134,81,-95,-25,-65,-12,-82,-81,20,,,22,,,,,7,-2,-2,4,
75,48,126,79,43,104,62,-52,-8,-48,-20,-82,-81,20,,
76,31,72,42,22,50,29,-17,-20,-6,-12,-82,-81,20,,
77,4,8,5,-6,-29,-22,49,-13,42,-18,-82,-81,20,,
78,-17,-56,-38,-24,-71,-46,13,-26,-16,-15,-82,-81,20,,
79,-22,-62,-39,-23,-67,-43,16,-11,45,-16,-82,-81,20,,
80,-23,-66,-42,-21,-60,-38,36,-17,5,-15,-82,-81,20,,
81,-25,-70,-44,-22,-62,-39,4,-13,2,-23,-82,-81,20,,
82,-22,-64,-41,-23,-66,-42,27,-26,-7,-21,-82,-81,20,,,,,,,,7,-2,-2,4,
83,-22,-61,-38,-21,-65,-43,-34,-23,-22,-18,-82,-81,20,,,,,,,,7,-2,-2,4,
84,-21,-59,-37,-20,-60,-39,-24,-31,-19,-31,-82,-81,20,,
85,-23,-67,-43,-22,-59,-36,-58,-24,-87,-33,-82,-81,20,,
86,-20,-62,-41,-22,-61,-38,-71,-34,-96,-18,-82,-81,20,,
87,-22,-58,-35,-22,-65,-42,-83,-35,-104,-24,-82,-81,20,,
88,-21,-56,-34,-21,-60,-38,-98,-24,-104,-29,-82,-81,20,,,,,,,,7,-2,-2,4,
89,-21,-58,-36,-19,-53,-33,-97,-29,-55,-28,-82,-81,20,,,,,,,,7,-2,-2,4,
90,-19,-59,-39,-19,-54,-34,-49,-11,-18,0,-82,-81,20,,,,,,,,7,-2,-2,4,
91,-18,-55,-36,-20,-59,-38,-31,-11,-61,-25,-82,-81,20,,
92,-19,-52,-32,-18,-56,-37,-85,-14,-103,-20,-82,-81,20,,
93,-19,-52,-32,-17,-51,-33,-107,-20,-98,-23,-82,-81,20,,
94,-20,-57,-36,-16,-47,-30,-115,-15,-123,-22,-82,-81,20,,
95,-19,-56,-36,-20,-52,-31,-119,-24,-117,-20,-82,-81,20,,
96,-16,-48,-31,-19,-54,-34,-165,-10,-165,-15,-82,-81,20,,,,,,,,7,-2,-2,4,
97,-18,-48,-29,-18,-51,-32,-194,-25,-210,-17,-82,-81,20,,
98,-17,-47,-29,-15,-44,-28,-209,-12,-233,-15,-82,-81,20,,
99,-17,-50,-32,-17,-44,-26,-231,-12,-190,-14,-82,-81,20,,
100,-17,-48,-30,-17,-46,-28,-141,-12,-134,-7,-82,-81,20,,
101,-14,-41,-26,-15,-47,-31,-87,-21,-70,-17,-82,-81,20,,
102,-15,-42,-26,-17,-46,-28,-105,-17,-111,-22,-82,-81,20,,
103,-13,-42,-28,-12,-38,-25,-89,-12,-67,-20,-82,-81,20,,
104,-15,-45,-29,-15,-40,-24,-25,-23,-73,-22,-82,-81,20,,,,,,,,7,-2,-2,4,
105,-9,-25,-15,-5,-14,-8,-70,-23,-39,-17,-82,-81,20,,
106,2,10,9,7,18,12,-53,-19,-37,-18,-82,-81,20,,
107,10,29,20,16,41,26,-12,-1,18,-6,-82,-81,20,,
108,11,28,18,10,26,17,-29,-10,-32,-14,-82,-81,20,,
109,6,11,6,1,1,1,-86,-3,-122,0,-82,-81,20,,
110,-3,-11,-7,-8,-29,-20,-158,-11,-118,-14,-82,-81,20,,
111,-13,-36,-22,-14,-42,-27,-80,-11,-81,-2,-82,-81,20,,,,,,,,7,-2,-2,4,
112,-14,-42,-27,-12,-36,-23,-151,-5,-220,0,-82,-81,20,,
113,-16,-46,-29,-15,-39,-23,-225,-19,-183,-10,-82,-81,20,,
114,-13,-39,-25,-16,-43,-26,-145,-18,-117,-11,-82,-81,20,,
115,-15,-37,-21,-12,-41,-28,-92,-12,-72,-6,-82,-81,20,,
116,-13,-36,-22,-13,-43,-29,-60,-4,-65,-9,-82,-81,20,,
117,7,89,82,136,421,286,-55,-3,-30,-8,-82,-81,20,,
118,262,801,539,339,896,557,-45,-8,-26,-7,-82,-81,20,,
119,132,246,114,-61,-249,-187,-22,-20,-27,-16,-82,-81,20,,
120,-110,-208,-98,-30,-76,-46,-34,-14,-29,-22,-82,-81,20,,,,,,,,7,-2,-2,4,
121,-23,-60,-37,-18,-49,-31,-9,-24,22,-11,-82,-81,20,,
122,-19,-56,-37,-18,-49,-31,-11,-9,-14,-16,-82,-81,20,,
123,-18,-51,-33,-21,-57,-36,-69,-3,-51,-9,-82,-81,20,,
124,-19,-49,-30,-20,-57,-37,-20,-21,-49,-19,-82,-81,20,,
125,-18,-51,-33,-17,-50,-33,-46,-14,-56,-17,-82,-81,20,,
126,-17,-50,-33,-13,-32,-19,-45,-21,-74,-22,-82,-81,20,,
127,-12,-35,-23,-10,-26,-16,-92,-15,-91,1,-82,-81,20,,,,,,,,7,-2,-2,4,
128,-7,-19,-12,-2,-6,-4,-69,-8,-58,-4,-82,-81,20,,
129,5,11,6,4,11,7,-44,-4,-50,-11,-82,-81,20,,
130,6,20,14,13,36,23,-38,-3,-59,-2,-82,-81,20,,
131,15,37,22,23,62,39,-82,-3,-119,-2,-82,-81,20,,
132,23,62,39,24,68,44,-125,-11,-134,-3,-82,-81,20,,
133,34,91,57,36,96,61,-131,-5,-101,2,-82,-81,20,,
134,40,116,77,47,126,80,-83,6,-100,10,-82,-81,20,,,,,,,,7,-2,-2,4,
135,49,131,83,55,149,95,-123,4,-141,-1,-82,-81,20,,
136,56,147,92,58,156,99,-180,1,-177,0,-82,-81,20,,
137,62,165,104,60,156,97,-177,-1,-200,1,-82,-81,20,,
138,58,152,95,54,134,81,-198,-6,-184,-12,-82,-81,20,,
139,46,123,78,40,99,60,-177,-2,-184,-13,-82,-81,20,,
140,30,70,40,19,45,26,-169,-5,-176,-4,-82,-81,20,,
141,9,11,2,-8,-32,-24,-184,15,-164,12,-82,-81,20,,
142,-20,-61,-41,-25,-72,-47,-183,18,-226,5,-82,-81,20,,
143,-25,-65,-40,-24,-66,-42,-236,20,-208,15,-82,-81,20,,,,,,,,7,-2,-2,4,
144,-27,-70,-43,-22,-60,-38,-198,23,-162,14,-82,-81,20,,
145,-24,-69,-45,-24,-63,-39,-162,5,-188,7,-82,-81,20,,
146,-24,-66,-42,-24,-67,-43,-198,-9,-217,4,-82,-81,20,,
147,-22,-60,-38,-23,-67,-44,-245,10,-269,3,-82,-81,20,,
148,-23,-63,-40,-21,-59,-38,-289,12,-292,15,-82,-81,20,,
149,-22,-65,-43,-19,-55,-36,-260,12,-256,1,-82,-81,20,,,,,,,,7,-2,-2,4,
150,-21,-60,-39,-23,-60,-37,-263,3,-260,17,-82,-81,20,,
151,-18,-54,-36,-21,-61,-40,-242,14,-210,11,-82,-81,20,,
152,-21,-55,-34,-19,-56,-37,-233,16,-258,17,-82,-81,20,,
153,-21,-57,-36,-18,-50,-32,-247,27,-266,12,-82,-81,20,,
154,-21,-58,-37,-18,-48,-30,-299,18,-302,10,-82,-81,20,,
155,-20,-55,-35,-19,-54,-35,-286,11,-274,23,-82,-81,20,,
156,-19,-49,-30,-19,-54,-35,-214,8,-249,8,-82,-81,20,,
157,-19,-49,-30,-18,-50,-32,-262,5,-241,7,-82,-81,20,,
158,-21,-53,-32,-16,-46,-30,-218,19,-169,18,-82,-81,20,,,,,,,,7,-2,-2,4,
159,-18,-52,-34,-17,-46,-29,-140,5,-123,15,-82,-81,20,,
160,-17,-46,-29,-18,-51,-33,-116,8,-121,-1,-82,-81,20,,
161,-15,-41,-26,-17,-48,-31,-110,14,-109,18,-82,-81,20,,
162,-14,-43,-29,-14,-41,-27,-129,16,-125,21,-82,-81,20,,
163,-16,-47,-31,-15,-42,-27,-112,16,-119,11,-82,-81,20,,
164,-15,-44,-29,-17,-45,-28,-158,11,-180,34,-82,-81,20,,
165,-14,-38,-24,-15,-44,-29,-152,26,-160,23,-82,-81,20,,,,,,,,7,-2,-2,4,
166,-14,-38,-24,-12,-40,-28,-177,27,-194,15,-82,-81,20,,
167,-15,-42,-27,-12,-36,-23,-212,19,-227,21,-82,-81,20,,
168,-16,-46,-29,-14,-37,-22,-222,15,-211,23,-82,-81,20,,
169,-9,-23,-13,-4,-12,-7,-149,14,-116,11,-82,-81,20,,
170,5,13,9,8,22,15,-95,25,-86,33,-82,-81,20,,,,,,,,7,-2,-2,4,
171,12,33,22,15,41,27,-86,34,-78,29,-82,-81,20,,
172,13,30,18,11,26,16,-70,29,-52,32,-82,-81,20,,
173,7,14,8,1,0,0,-69,32,-66,29,-82,-81,20,,
174,-1,-9,-7,-8,-31,-22,-125,26,-126,25,-82,-81,20,,
175,-11,-35,-23,-14,-41,-26,-159,31,-137,34,-82,-81,20,,
176,-13,-38,-24,-10,-32,-21,-119,19,-135,17,-82,-81,20,,,,,,,,7,-2,-2,4,
177,-12,-40,-27,-12,-35,-22,-160,17,-155,14,-82,-81,20,,
178,-12,-37,-24,-13,-41,-27,-150,20,-145,23,-82,-81,20,,
179,-13,-36,-22,-12,-39,-26,-105,14,-113,19,-82,-81,20,,
180,-13,-37,-23,-11,-45,-33,-159,33,-199,33,-82,-81,20,,
181,25,142,117,149,465,316,-209,24,-201,19,-82,-81,20,,
182,291,846,556,341,824,484,-170,34,-171,29,-82,-81,20,,
183,101,165,64,-85,-284,-199,-133,23,-119,32,-82,-81,20,,
184,-87,-168,-81,-27,-71,-44,-123,36,-142,31,-82,-81,20,,
185,-18,-55,-37,-18,-50,-32,-126,32,-68,27,-82,-81,20,,,,,,,,7,-2,-2,4,
186,-19,-56,-37,-18,-49,-31,-61,32,-91,39,-82,-81,20,,
187,-18,-51,-33,-18,-53,-35,-104,26,-87,29,-82,-81,20,,
188,-18,-49,-31,-16,-53,-37,-59,27,-84,21,-82,-81,20,,
189,-18,-49,-31,-17,-49,-32,-123,31,-179,32,-82,-81,20,,
190,-19,-50,-31,-12,-31,-19,-197,27,-202,27,-82,-81,20,,
191,-11,-35,-24,-8,-24,-16,-201,27,-181,39,-82,-81,20,,
192,-3,-9,-6,0,-3,-3,-145,39,-194,37,-82,-81,20,,
193,2,12,10,7,14,7,-252,41,-274,26,-82,-81,20,,
194,9,24,15,15,37,22,-263,38,-251,39,-82,-81,20,,
195,15,42,27,20,60,40,-288,26,-282,25,-82,-81,20,,
196,24,66,42,33,80,47,-239,23,-244,27,-82,-81,20,,,,,,,,7,-2,-2,4,
197,33,93,61,39,101,63,-248,23,-239,23,-82,-81,20,,
198,46,123,78,48,129,82,-222,24,-199,30,-82,-81,20,,,,,,,,7,-2,-2,4,
199,50,134,85,56,152,97,-218,24,-168,27,-82,-81,20,,
200,58,152,95,59,159,101,-99,24,-62,24,-82,-81,20,,
201,62,167,106,60,157,98,-104,23,-167,14,-82,-81,20,,
202,58,154,97,53,133,81,-187,24,-157,20,-82,-81,20,,
203,47,123,77,39,100,62,-125,18,-151,29,-82,-81,20,,
204,28,66,39,17,40,24,-183,31,-214,34,-82,-81,20,,
205,6,4,-1,-9,-37,-27,-230,22,-246,28,-82,-81,20,,,,,,,,7,-2,-2,4,
206,-20,-60,-39,-26,-70,-43,-277,16,-250,28,-82,-81,20,,,,,,,,7,-2,-2,4,
207,-24,-65,-40,-23,-67,-43,-199,33,-165,21,-82,-81,20,,
208,-25,-69,-43,-22,-62,-39,-146,25,-129,32,-82,-81,20,,
209,-23,-68,-44,-21,-60,-38,-164,32,-196,27,-82,-81,20,,
210,-25,-65,-39,-25,-67,-41,-193,26,-174,31,-82,-81,20,,
211,-22,-59,-36,-23,-65,-41,-112,36,-78,28,-82,-81,20,,,,,,,,7,-2,-2,4,
212,-21,-60,-38,-21,-60,-38,-61,28,-53,9,-82,-81,20,,,,,,,,7,-2,-2,4,
213,-22,-62,-39,-20,-56,-35,-19,13,-72,25,-82,-81,20,,
214,-22,-61,-38,-22,-60,-37,-94,21,-106,18,-82,-81,20,,
215,-20,-55,-34,-20,-61,-40,-94,24,-110,21,-82,-81,20,,
216,-22,-56,-33,-19,-57,-37,-129,27,-180,22,-82,-81,20,,
217,-20,-58,-37,-17,-50,-32,-197,35,-177,31,-82,-81,20,,
218,-19,-58,-38,-19,-52,-32,-153,35,-109,27,-82,-81,20,,
219,-17,-51,-33,-19,-56,-36,-85,15,-88,26,-82,-81,20,,,,,,,,7,-2,-2,4,
220,-18,-49,-30,-17,-53,-35,-133,18,-145,16,-82,-81,20,,
221,-18,-52,-33,-17,-50,-32,-127,35,-141,17,-82,-81,20,,,,,,,,7,-2,-2,4,
222,-19,-52,-32,-17,-46,-28,-114,27,-106,23,-82,-81,20,,
223,-17,-51,-33,-16,-48,-31,-127,13,-163,19,-82,-81,20,,
224,-16,-45,-28,-17,-50,-32,-183,11,-188,7,-82,-81,20,,
225,-16,-42,-25,-16,-49,-32,-198,12,-151,26,-82,-81,20,,
226,-15,-46,-30,-15,-42,-26,-107,30,-100,22,-82,-81,20,,
227,-16,-49,-32,-15,-42,-26,-85,11,-114,8,-82,-81,20,,
228,-14,-42,-27,-16,-47,-30,-103,15,-74,22,-82,-81,20,,
229,-17,-44,-26,-15,-46,-30,-18,8,41,7,-82,-81,20,,,,,,,,7,-2,-2,4,
230,-15,-41,-25,-13,-41,-27,37,24,-3,2,-82,-81,20,,,,,,,,7,-2,-2,4,
231,-14,-44,-29,-12,-36,-23,67,16,62,4,-82,-81,20,,
232,-15,-45,-29,-11,-34,-22,33,0,0,20,-82,-81,20,,
233,-7,-19,-12,-1,-8,-7,-4,11,61,13,-82,-81,20,,
234,8,19,11,9,23,15,120,8,65,4,-82,-81,20,,
235,14,35,22,18,43,26,75,16,114,5,-82,-81,20,,
236,13,26,13,10,24,14,150,10,177,10,-82,-81,20,,
237,8,14,6,3,3,0,185,4,194,4,-82,-81,20,,,,,,,,7,-2,-2,4,
238,-1,-10,-9,-12,-38,-26,225,-14,238,-8,-82,-81,20,,
239,-14,-38,-24,-15,-40,-25,253,-5,258,-13,-82,-81,20,,
240,-15,-42,-27,-13,-37,-24,256,-11,200,-14,-82,-81,20,,
241,-14,-41,-27,-15,-40,-25,178,-9,190,-10,-82,-81,20,,
242,-13,-37,-24,-15,-40,-25,170,-14,125,-10,-82,-81,20,,
243,-14,-35,-21,-16,-41,-25,104,-15,75,-11,-82,-81,20,,
244,-15,-39,-24,-14,-52,-38,42,-12,35,-27,-82,-81,20,,
245,36,184,148,159,504,345,46,-17,-5,-16,-82,-81,20,,,,,,,,7,-2,-2,4,
246,312,880,569,340,738,398,-54,-28,-77,-25,-82,-81,20,,117,,,,,,7,-2,-2,4,
247,105,115,11,-99,-307,-208,-73,-30,-64,-33,-82,-81,20,,,,,,,,7,-2,-2,4,
248,-68,-137,-68,-28,-73,-44,-60,-23,-82,-27,-82,-81,20,,
249,-23,-59,-35,-18,-50,-31,-103,-23,-137,-27,-82,-81,20,,
250,-20,-56,-35,-18,-51,-32,-166,-38,-194,-45,-82,-81,20,,
251,-19,-53,-33,-21,-57,-35,-172,-51,-173,-34,-82,-81,20,,
252,-18,-47,-28,-19,-55,-35,-164,-39,-164,-46,-82,-81,20,,
253,-20,-52,-31,-17,-48,-30,-140,-43,-141,-40,-82,-81,20,,
254,-19,-50,-30,-12,-31,-18,-128,-36,-115,-48,-82,-81,20,,,,25.6,,,,7,-2,-2,4,
255,-13,-36,-22,-12,-30,-17,-144,-51,-137,-46,-82,-81,20,,
0,-6,-14,-7,-1,-5,-3,-138,-51,-162,-43,-82,-81,20,,
1,3,10,8,5,11,7,-233,-42,-234,-50,-82,-81,20,,
2,6,22,17,13,36,24,-248,-32,-232,-38,-82,-81,20,,
3,15,40,26,22,61,40,-250,-39,-258,-42,-82,-81,20,,
4,25,65,41,26,72,47,-350,-42,-606,10,-82,-81,20,,,,,,,,7,-2,-2,4,
5,33,94,62,37,102,66,-807,22,-935,23,-82,-81,20,,,,,,,,7,-2,-2,4,
6,43,119,77,48,129,82,-1064,33,-1133,32,-82,-81,20,,
7,48,130,83,54,148,95,-1218,26,-1277,23,-82,-81,20,,
8,56,150,95,57,160,103,-1342,24,-1355,33,-82,-81,20,,
9,61,166,105,59,153,94,-1364,36,-1319,44,-82,-81,20,,
10,56,150,94,49,127,79,-1251,47,-1254,42,-82,-81,20,,
11,45,117,73,37,94,58,-1256,35,-1250,29,-82,-81,20,,
12,25,59,35,9,30,22,-1153,29,-977,19,-82,-81,20,,,,,,,,7,-2,-2,4,
13,4,-1,-4,-13,-45,-31,-621,-31,-550,10,-82,-81,20,,
14,-25,-67,-41,-26,-73,-46,-534,23,-299,-16,-82,-81,20,,,,,,,,7,-2,-2,4,
15,-25,-66,-40,-24,-69,-44,-208,1,-65,-26,-82,-81,20,,
16,-25,-68,-42,-22,-63,-40,-11,-6,106,-21,-82,-81,20,,
17,-24,-69,-44,-23,-64,-40,119,-7,174,-30,-82,-81,20,,
18,-22,-63,-40,-26,-69,-42,160,-22,210,-33,-82,-81,20,,
19,-22,-60,-37,-23,-66,-42,196,-20,246,-16,-82,-81,20,,
20,-23,-64,-40,-21,-61,-39,335,-22,299,-28,-82,-81,20,,
21,-24,-67,-42,-21,-57,-35,234,-1,293,-21,-82,-81,20,,,,,,,,7,-2,-2,4,
22,-23,-65,-41,-21,-61,-39,308,-28,335,-21,-82,-81,20,,,,,,,,7,-2,-2,4,
23,-21,-57,-35,-20,-62,-41,283,-4,298,-7,-82,-81,20,,
24,-20,-55,-34,-21,-61,-39,297,-7,288,-16,-82,-81,20,,
25,-20,-58,-37,-18,-53,-34,294,-17,274,-13,-82,-81,20,,
26,-20,-58,-37,-18,-52,-33,279,-13,293,-16,-82,-81,20,,
27,-19,-54,-34,-22,-60,-37,270,-15,245,-16,-82,-81,20,,
28,-17,-49,-31,-18,-56,-37,220,-25,203,-24,-82,-81,20,,
29,-19,-52,-32,-18,-53,-34,203,-12,209,-16,-82,-81,20,,
30,-20,-56,-35,-17,-48,-30,189,-11,182,-14,-82,-81,20,,,,,,,,7,-2,-2,4,
31,-17,-53,-35,-19,-52,-32,177,-27,174,-23,-82,-81,20,,,,,,,,7,-2,-2,4,
32,-17,-47,-29,-18,-54,-35,139,-17,137,-17,-82,-81,20,,
33,-17,-45,-27,-17,-52,-34,197,-14,194,-29,-82,-81,20,,
34,-18,-50,-31,-17,-46,-28,154,-16,145,-25,-82,-81,20,,
35,-16,-50,-33,-17,-46,-28,192,-25,189,-7,-82,-81,20,,
36,-18,-48,-29,-15,-48,-32,164,-10,131,-19,-82,-81,20,,
37,-15,-42,-26,-17,-49,-31,126,-23,136,-23,-82,-81,20,,,,,,,,7,-2,-2,4,
38,-16,-43,-26,-16,-45,-28,133,-3,110,-17,-82,-81,20,,
39,-15,-47,-31,-15,-39,-23,80,-15,53,-13,-82,-81,20,,
40,-16,-45,-28,-16,-38,-21,41,-9,52,-2,-82,-81,20,,
41,-7,-19,-11,-3,-6,-2,81,-8,98,-14,-82,-81,20,,
42,4,13,10,8,22,15,119,-3,66,-15,-82,-81,20,,
43,10,33,24,13,39,26,47,-10,80,-16,-82,-81,20,,,,,,,,7,-2,-2,4,
44,10,22,12,8,21,14,122,-9,166,-14,-82,-81,20,,
45,5,11,6,-1,-7,-6,155,-13,152,-8,-82,-81,20,,
46,-5,-16,-10,-13,-42,-28,174,-15,215,-9,-82,-81,20,,
47,-16,-43,-26,-16,-43,-26,243,-3,214,-2,-82,-81,20,,
48,-17,-45,-27,-15,-40,-24,179,-13,94,-12,-82,-81,20,,,22,,,,,7,-2,-2,4,
49,-15,-44,-28,-15,-41,-25,61,-10,21,-12,-82,-81,20,,
50,-14,-39,-24,-15,-42,-26,16,-17,29,-22,-82,-81,20,,
51,-13,-36,-22,-14,-41,-26,51,-14,89,-14,-82,-81,20,,
52,-14,-39,-24,-17,-54,-36,90,-11,55,-12,-82,-81,20,,
53,56,224,168,171,533,363,51,-13,13,8,-82,-81,20,,
54,324,894,570,320,648,328,-10,-9,-31,-9,-82,-81,20,,
55,58,24,-34,-112,-325,-212,-24,-2,-34,-14,-82,-81,20,,
56,-54,-115,-61,-27,-70,-43,-65,-18,-105,-24,-82,-81,20,,
57,-24,-63,-39,-20,-52,-32,-125,-10,-103,-4,-82,-81,20,,,,,,,,7,-2,-2,4,
58,-21,-59,-38,-22,-56,-34,-42,1,-2,2,-82,-81,20,,,,,,,,7,-2,-2,4,
59,-20,-55,-35,-21,-57,-36,43,-4,27,-14,-82,-81,20,,
60,-18,-50,-32,-19,-55,-36,-1,4,28,2,-82,-81,20,,
61,-19,-52,-33,-16,-47,-31,31,-8,19,-11,-82,-81,20,,
62,-18,-50,-32,-11,-30,-19,3,0,-17,-3,-82,-81,20,,
63,-11,-35,-24,-10,-28,-18,-21,-9,-32,-1,-82,-81,20,,
64,-5,-12,-7,-2,-5,-3,-30,-6,8,-11,-82,-81,20,,,,,,,,7,-2,-2,4,
65,2,8,7,6,13,8,51,3,75,18,-82,-81,20,,
66,8,23,16,10,33,24,85,13,59,-2,-82,-81,20,,,,,,,,7,-2,-2,4,
67,15,42,28,22,61,40,36,0,25,1,-82,-81,20,,
68,24,66,43,25,74,50,10,-8,17,7,-82,-81,20,,
69,33,95,63,38,104,66,37,7,80,1,-82,-81,20,,
70,43,121,78,47,129,82,96,3,52,-6,-82,-81,20,,,,,,,,7,-2,-2,4,
71,50,132,83,55,149,95,33,-5,14,1,-82,-81,20,,
72,58,151,94,58,160,103,18,-4,-26,13,-82,-81,20,,
73,60,165,106,55,149,95,-55,8,-41,2,-82,-81,20,,
74,55,149,95,49,129,81,-2,7,-1,3,-82,-81,20,,
75,43,113,71,35,90,56,12,25,28,10,-82,-81,20,,
76,25,58,34,13,33,20,51,17,61,11,-82,-81,20,,,,,,,,7,-2,-2,4,
77,0,-8,-8,-15,-49,-34,35,5,49,5,-82,-81,20,,
78,-25,-65,-40,-25,-71,-46,26,2,-19,-3,-82,-81,20,,
79,-27,-65,-38,-25,-66,-41,-44,14,-58,6,-82,-81,20,,
80,-26,-68,-42,-25,-63,-38,-61,15,-49,5,-82,-81,20,,,,,,,,7,-2,-2,4,
81,-25,-68,-43,-24,-63,-39,-14,7,-34,1,-82,-81,20,,
82,-23,-60,-37,-25,-69,-44,-44,1,-63,9,-82,-81,20,,
83,-25,-62,-37,-24,-66,-42,-76,10,-26,9,-82,-81,20,,
84,-26,-64,-38,-23,-59,-36,-32,17,-16,10,-82,-81,20,,,,,,,,7,-2,-2,4,
85,-23,-63,-40,-24,-58,-34,10,6,-1,7,-82,-81,20,,
86,-23,-63,-40,-24,-61,-37,3,3,32,15,-82,-81,20,,
87,-21,-56,-35,-24,-62,-38,57,-3,52,10,-82,-81,20,,
88,-23,-54,-31,-22,-58,-36,25,14,33,8,-82,-81,20,,
89,-24,-60,-36,-22,-54,-32,28,2,-5,7,-82,-81,20,,117,,,,,,7,-2,-2,4,
90,-21,-58,-37,-20,-54,-34,-31,16,-69,19,-82,-81,20,,
91,-20,-53,-33,-21,-58,-37,-106,13,-97,11,-82,-81,20,,
92,-21,-53,-32,-19,-56,-37,-85,17,-89,13,-82,-81,20,,
93,-20,-53,-33,-20,-50,-30,-144,17,-93,10,-82,-81,20,,
94,-19,-54,-35,-19,-48,-29,-53,20,-36,8,-82,-81,20,,,,,,,,7,-2,-2,4,
95,-19,-52,-33,-20,-51,-31,-36,12,-29,5,-82,-81,20,,
96,-18,-46,-28,-19,-53,-34,6,20,32,12,-82,-81,20,,
97,-19,-48,-29,-18,-48,-30,38,11,31,7,-82,-81,20,,
98,-18,-50,-32,-18,-44,-26,38,20,46,20,-82,-81,20,,
99,-18,-51,-33,-17,-45,-28,35,16,28,18,-82,-81,20,,,,,,,,7,-2,-2,4,
100,-17,-45,-28,-17,-48,-31,26,1,-8,18,-82,-81,20,,
101,-18,-43,-25,-19,-50,-31,5,14,-35,15,-82,-81,20,,
102,-17,-45,-28,-19,-46,-27,-83,20,-87,13,-82,-81,20,,
103,-18,-47,-29,-16,-39,-23,-106,15,-106,17,-82,-81,20,,
104,-18,-47,-29,-15,-34,-19,-104,19,-97,25,-82,-81,20,,
105,-8,-16,-8,-3,-6,-3,-75,12,-67,12,-82,-81,20,,,,,,,,7,-2,-2,4,
106,5,17,12,9,29,20,-73,23,-40,18,-82,-81,20,,
107,11,33,22,14,40,26,-16,24,5,15,-82,-81,20,,
108,9,21,13,8,20,13,-14,20,-7,23,-82,-81,20,,
109,3,8,6,-1,-10,-8,-95,17,-96,14,-82,-81,20,,117,,,,,,7,-2,-2,4,
110,-5,-17,-11,-12,-41,-28,-72,20,-75,22,-82,-81,20,,
111,-15,-42,-26,-12,-39,-26,-85,23,-61,10,-82,-81,20,,
112,-17,-45,-27,-14,-37,-22,-67,18,-85,10,-82,-81,20,,
113,-16,-45,-28,-16,-40,-23,-135,14,-172,22,-82,-81,20,,,,,,,,7,-2,-2,4,
114,-14,-38,-23,-16,-44,-27,-142,9,-140,11,-82,-81,20,,
115,-12,-34,-21,-14,-40,-25,-156,2,-203,-2,-82,-81,20,,
116,-13,-39,-25,-19,-32,-12,-217,10,-175,10,-82,-81,20,,
117,76,274,198,191,594,404,-146,14,-127,9,-82,-81,20,,
118,332,905,574,267,540,273,-94,12,-105,26,-82,-81,20,,,,,,,,7,-2,-2,4,
119,27,-39,-66,-117,-328,-211,-105,22,-79,18,-82,-81,20,,
120,-43,-97,-54,-23,-63,-40,-26,24,17,25,-82,-81,20,,
121,-21,-58,-37,-17,-48,-31,6,28,-22,23,-82,-81,20,,
122,-19,-55,-36,-19,-51,-32,-43,27,-17,24,-82,-81,20,,
123,-19,-51,-32,-19,-54,-35,-32,29,-45,35,-82,-81,20,,
124,-17,-46,-29,-19,-55,-36,-35,30,-8,34,-82,-81,20,,
125,-19,-51,-32,-17,-46,-29,9,31,9,39,-82,-81,20,,,,,,,,7,-2,-2,4,
126,-16,-44,-28,-9,-26,-17,2,38,6,35,-82,-81,20,,
127,-12,-33,-21,-7,-21,-14,62,27,84,25,-82,-81,20,,
128,-1,-4,-3,1,-2,-3,79,21,72,27,-82,-81,20,,
129,3,11,8,6,16,10,50,32,15,32,-82,-81,20,,
130,9,27,18,15,39,24,-37,22,-62,19,-82,-81,20,,,,,,,,7,-2,-2,4,
131,19,50,31,23,63,40,-86,28,-101,21,-82,-81,20,,,,,,,,7,-2,-2,4,
132,27,70,43,28,78,50,-124,16,-109,33,-82,-81,20,,,,,,,,7,-2,-2,4,
133,35,98,64,43,111,69,-118,24,-97,18,-82,-81,20,,
134,45,125,81,47,130,84,-110,29,-118,28,-82,-81,20,,
135,49,133,85,58,155,98,-126,23,-134,17,-82,-81,20,,
136,58,153,96,60,161,102,-162,16,-186,28,-82,-81,20,,,,,,,,7,-2,-2,4,
137,64,169,106,57,149,93,-182,19,-195,19,-82,-81,20,,
138,56,147,92,49,128,80,-216,23,-224,13,-82,-81,20,,
139,44,111,68,35,90,56,-224,24,-224,19,-82,-81,20,,
140,25,56,32,15,31,17,-189,21,-238,40,-82,-81,20,,
141,4,-8,-11,-17,-54,-36,-251,37,-194,32,-82,-81,20,,
142,-22,-59,-36,-23,-65,-42,-166,34,-184,22,-82,-81,20,,,,,,,,7,-2,-2,4,
143,-22,-62,-40,-25,-65,-40,-142,20,-141,22,-82,-81,20,,,,,,,,7,-2,-2,4,
144,-24,-67,-43,-23,-60,-37,-142,17,-165,17,-82,-81,20,,
145,-24,-65,-41,-24,-62,-38,-172,16,-173,13,-82,-81,20,,
146,-21,-60,-39,-23,-65,-41,-130,1,-138,19,-82,-81,20,,
147,-22,-58,-35,-22,-63,-40,-152,26,-146,11,-82,-81,20,,
148,-22,-61,-38,-20,-58,-37,-105,21,-97,22,-82,-81,20,,,22,,,,,7,-2,-2,4,
149,-23,-66,-42,-20,-54,-33,-92,20,-76,12,-82,-81,20,,115,,,,,,7,-2,-2,4,
150,-21,-59,-37,-22,-59,-36,-64,9,-66,21,-82,-81,20,,
151,-22,-56,-33,-22,-62,-39,-129,13,-174,10,-82,-81,20,,
152,-22,-56,-33,-20,-58,-37,-178,7,-190,13,-82,-81,20,,
153,-21,-59,-37,-19,-51,-31,-182,18,-153,20,-82,-81,20,,
154,-22,-61,-38,-23,-56,-32,-128,9,-105,18,-82,-81,20,,,,,,,,7,-2,-2,4,
155,-19,-52,-32,-19,-54,-34,-90,22,-78,20,-82,-81,20,,
156,-20,-51,-30,-17,-53,-35,-59,21,-74,20,-82,-81,20,,
157,-19,-52,-32,-18,-48,-29,-97,31,-88,17,-82,-81,20,,
158,-19,-53,-33,-17,-45,-27,-113,20,-129,25,-82,-81,20,,,,,,,,7,-2,-2,4,
159,-19,-50,-30,-18,-50,-31,-121,17,-108,22,-82,-81,20,,,,,,,,7,-2,-2,4,
160,-15,-44,-28,-17,-51,-33,-118,12,-134,17,-82,-81,20,,
161,-17,-43,-25,-16,-46,-29,-160,17,-139,19,-82,-81,20,,
162,-20,-50,-29,-15,-42,-26,-147,13,-148,8,-82,-81,20,,
163,-18,-50,-31,-16,-44,-27,-154,1,-112,12,-82,-81,20,,
164,-15,-43,-27,-16,-46,-29,-76,1,-78,5,-82,-81,20,,,,,,,,7,-2,-2,4,
165,-14,-38,-23,-16,-47,-30,-82,8,-45,9,-82,-81,20,,
166,-17,-42,-24,-13,-40,-26,-23,3,-34,-4,-82,-81,20,,
167,-16,-45,-28,-15,-38,-22,-48,6,-60,-3,-82,-81,20,,
168,-13,-41,-27,-13,-32,-18,-58,8,-74,15,-82,-81,20,,,22,,,,,7,-2,-2,4,
169,-8,-14,-5,2,1,0,-80,-7,-59,-3,-82,-81,20,,115,22,,,,,7,-2,-2,4,
170,6,21,16,10,28,19,-56,11,-67,3,-82,-81,20,,
171,12,36,25,15,40,26,-46,12,-60,6,-82,-81,20,,
172,11,22,12,7,20,14,-82,7,-80,2,-82,-81,20,,
173,4,8,5,-3,-10,-6,-57,-3,-53,-1,-82,-81,20,,
174,-9,-21,-11,-14,-42,-27,-80,6,-96,-4,-82,-81,20,,,,,,,,7,-2,-2,4,
175,-15,-39,-23,-16,-41,-24,-163,-2,-154,-15,-82,-81,20,,
176,-19,-47,-27,-15,-38,-22,-153,-17,-191,-1,-82,-81,20,,
177,-15,-40,-24,-16,-41,-24,-194,10,-159,0,-82,-81,20,,
178,-15,-37,-21,-16,-42,-25,-123,-6,-132,-9,-82,-81,20,,
179,-14,-35,-20,-15,-41,-25,-171,-11,-187,-21,-82,-81,20,,,,,,,,7,-2,-2,4,
180,-17,-41,-23,-23,-2,21,-157,-13,-125,-10,-82,-81,20,,
181,149,374,226,207,661,455,-84,-8,-128,-14,-82,-81,20,,
182,337,913,577,218,433,215,-112,-22,-74,-14,-82,-81,20,,
183,-4,-109,-105,-123,-306,-183,-116,-38,-130,-30,-82,-81,20,,
184,-38,-87,-49,-25,-65,-40,-102,-22,-43,-19,-82,-81,20,,
185,-21,-57,-36,-17,-49,-32,-17,1,0,-4,-82,-81,20,,,,,,,,7,-2,-2,4,
186,-20,-56,-36,-19,-50,-31,-10,-4,1,-7,-82,-81,20,,
187,-20,-51,-31,-20,-53,-33,-39,-8,-126,-13,-82,-81,20,,
188,-20,-47,-27,-19,-52,-33,-177,-12,-141,-7,-82,-81,20,,,22,,,,,7,-2,-2,4,
189,-19,-49,-30,-17,-46,-29,-150,-21,-153,-19,-82,-81,20,,
190,-17,-42,-25,-11,-27,-16,-125,-31,-137,-11,-82,-81,20,,
191,-12,-30,-18,-10,-23,-13,-135,-13,-130,-3,-82,-81,20,,
192,-3,-3,0,-1,-1,0,-135,-32,-111,-20,-82,-81,20,,
193,4,15,11,5,16,11,-91,-21,-73,-31,-82,-81,20,,
194,10,27,17,14,42,28,-96,-19,-117,-28,-82,-81,20,,,,,,,,7,-2,-2,4,
195,17,48,31,22,64,42,-127,-11,-145,-4,-82,-81,20,,,,,,,,7,-2,-2,4,
196,26,70,44,28,81,53,-174,-15,-127,-12,-82,-81,20,,
197,36,103,67,38,107,69,-66,-21,-53,-12,-82,-81,20,,
198,44,125,81,48,134,86,-104,-12,-117,-32,-82,-81,20,,
199,48,137,89,56,156,100,-90,-23,-124,-23,-82,-81,20,,
200,59,156,97,61,163,102,-134,-30,-163,-24,-82,-81,20,,,,,,,,7,-2,-2,4,
201,64,169,105,56,151,95,-158,-12,-152,-13,-82,-81,20,,
202,55,146,91,48,126,78,-175,-5,-182,-19,-82,-81,20,,
203,41,107,66,33,87,54,-140,-9,-93,-24,-82,-81,20,,
204,15,43,28,8,23,15,-86,-27,-92,-11,-82,-81,20,,,,,,,,7,-2,-2,4,
205,-1,-14,-13,-22,-60,-38,-84,-10,-105,-8,-82,-81,20,,
206,-23,-63,-40,-25,-69,-44,-109,-6,-119,-11,-82,-81,20,,
207,-24,-65,-41,-23,-62,-39,-87,-14,-44,-27,-82,-81,20,,
208,-24,-66,-42,-24,-62,-38,0,-10,17,-6,-82,-81,20,,
209,-22,-62,-40,-22,-59,-37,6,-6,-19,-4,-82,-81,20,,
210,-21,-59,-38,-23,-64,-41,-49,-2,-73,-10,-82,-81,20,,,,,,,,7,-2,-2,4,
211,-24,-58,-34,-24,-63,-39,-90,-12,-95,-20,-82,-81,20,,
212,-23,-60,-37,-20,-55,-35,-56,-6,-34,-12,-82,-81,20,,
213,-23,-63,-40,-22,-56,-34,-28,-13,-5,-12,-82,-81,20,,
214,-20,-57,-37,-21,-58,-37,-17,-20,-23,-13,-82,-81,20,,,,,,,,7,-2,-2,4,
215,-19,-53,-34,-23,-60,-37,21,-9,26,-5,-82,-81,20,,
216,-19,-51,-32,-19,-55,-36,26,-11,23,-31,-82,-81,20,,
217,-22,-58,-36,-19,-48,-29,-32,-22,-51,-18,-82,-81,20,,
218,-20,-57,-37,-19,-51,-32,-66,-15,-61,-13,-82,-81,20,,
219,-19,-51,-32,-21,-56,-35,-90,-17,-166,-17,-82,-81,20,,
220,-20,-49,-29,-19,-54,-34,-193,-17,-176,-9,-82,-81,20,,,,,,,,7,-2,-2,4,
221,-20,-53,-32,-17,-47,-29,-130,-11,-89,-12,-82,-81,20,,
222,-20,-54,-33,-19,-48,-28,-72,-10,-56,-9,-82,-81,20,,
223,-19,-51,-31,-20,-51,-30,-8,-18,-17,-12,-82,-81,20,,
224,-17,-46,-28,-18,-52,-33,-17,-18,-33,-7,-82,-81,20,,,,,,,,7,-2,-2,4,
225,-18,-46,-27,-16,-46,-29,-43,-6,-59,-16,-82,-81,20,,
226,-19,-50,-30,-16,-42,-25,-48,-2,-31,3,-82,-81,20,,
227,-17,-49,-31,-16,-43,-26,-54,0,-33,0,-82,-81,20,,
228,-16,-43,-26,-15,-45,-29,-28,-7,-14,11,-82,-81,20,,
229,-16,-40,-23,-14,-42,-27,35,2,48,-4,-82,-81,20,,
230,-14,-40,-25,-14,-40,-25,45,-7,48,-9,-82,-81,20,,,,,,,,7,-2,-2,4,
231,-17,-45,-27,-13,-36,-22,9,-19,-42,-18,-82,-81,20,,
232,-14,-40,-25,-11,-29,-17,-81,-11,-82,-5,-82,-81,20,,
233,-5,-9,-3,0,1,2,-80,-12,-54,-17,-82,-81,20,,
234,7,24,18,14,34,21,-35,-20,-30,-17,-82,-81,20,,
235,14,38,25,15,41,27,-67,-19,-81,-22,-82,-81,20,,
236,9,23,15,7,19,13,-86,-19,-92,-7,-82,-81,20,,,,,,,,7,-2,-2,4,
237,4,9,6,-3,-12,-8,-44,3,-41,6,-82,-81,20,,
238,-8,-24,-15,-15,-43,-27,-3,7,17,4,-82,-81,20,,
239,-15,-39,-23,-14,-39,-24,-5,8,-20,-11,-82,-81,20,,
240,-15,-44,-28,-14,-37,-22,6,-9,1,-2,-82,-81,20,,,,,,,,7,-2,-2,4,
241,-16,-44,-27,-14,-39,-24,-59,-11,-67,-1,-82,-81,20,,
242,-13,-36,-22,-16,-43,-26,-65,-6,-80,22,-82,-81,20,,
243,-13,-33,-19,-14,-39,-24,-103,16,-118,-13,-82,-81,20,,
244,-14,-38,-23,-19,29,48,-130,-3,-123,-10,-82,-81,20,,
245,107,354,248,220,719,500,-76,-3,8,13,-82,-81,20,,
246,338,914,576,181,344,163,52,13,102,-11,-82,-81,20,,,,,,,,7,-2,-2,4,
247,-26,-168,-141,-124,-272,-148,147,-8,164,-16,-82,-81,20,,
248,-34,-82,-48,-23,-61,-38,122,-25,133,-21,-82,-81,20,,
249,-21,-57,-36,-20,-50,-30,176,-16,178,-7,-82,-81,20,,115,,,,,,7,-2,-2,4,
250,-20,-57,-37,-20,-52,-32,183,6,172,3,-82,-81,20,,
251,-16,-48,-32,-19,-54,-35,169,-9,185,-2,-82,-81,20,,
252,-18,-49,-31,-19,-54,-35,195,15,194,6,-82,-81,20,,
253,-17,-50,-33,-18,-49,-31,178,3,141,-14,-82,-81,20,,
254,-14,-41,-27,-12,-30,-18,119,-15,138,-6,-82,-81,20,,
255,-11,-30,-19,-10,-25,-15,114,-12,94,8,-82,-81,20,,
0,-3,-4,-1,-1,-2,-1,127,-18,170,-10,-82,-81,20,,,,,,,,7,-2,-2,4,
1,2,10,8,6,19,13,184,-18,159,-4,-82,-81,20,,
2,10,27,17,15,45,30,125,4,66,15,-82,-81,20,,
3,19,49,30,21,63,42,34,-9,10,-7,-82,-81,20,,
4,26,71,45,31,81,50,15,-11,-9,15,-82,-81,20,,,,,,,,7,-2,-2,4,
5,36,102,66,41,110,69,36,-10,37,-11,-82,-81,20,,
6,47,128,81,52,137,85,-11,-1,-43,-9,-82,-81,20,,
7,51,138,87,56,151,95,-60,-12,-85,-11,-82,-81,20,,
8,59,156,97,60,161,102,-134,0,-141,-6,-82,-81,20,,
9,63,167,105,57,148,92,-137,0,-130,-5,-82,-81,20,,
10,53,143,90,49,127,78,-100,-9,-61,-5,-82,-81,20,,,,,,,,7,-2,-2,4,
11,41,104,63,34,85,51,-38,-2,-51,-1,-82,-81,20,,
12,22,49,27,11,22,11,-67,2,-50,3,-82,-81,20,,
13,-4,-23,-19,-19,-60,-41,-35,15,-42,5,-82,-81,20,,
14,-24,-64,-40,-25,-69,-44,-61,9,-54,4,-82,-81,20,,
15,-26,-67,-41,-24,-63,-39,-55,18,-67,7,-82,-81,20,,
16,-25,-69,-44,-23,-60,-37,-101,16,-115,19,-82,-81,20,,,,,,,,7,-2,-2,4,
17,-24,-67,-43,-24,-64,-40,-84,7,-80,1,-82,-81,20,,
18,-21,-60,-39,-23,-64,-41,-75,-2,-56,7,-82,-81,20,,
19,-21,-57,-36,-21,-62,-41,-39,10,-72,1,-82,-81,20,,
20,-20,-60,-40,-22,-59,-37,-114,-3,-138,5,-82,-81,20,,
21,-22,-62,-40,-22,-58,-36,-125,8,-109,10,-82,-81,20,,,,,,,,7,-2,-2,4,
22,-19,-56,-37,-22,-61,-39,-145,1,-166,11,-82,-81,20,,
23,-20,-55,-35,-19,-58,-39,-192,17,-213,23,-82,-81,20,,
24,-22,-56,-34,-20,-56,-36,-177,17,-161,10,-82,-81,20,,
25,-20,-58,-38,-20,-54,-34,-156,19,-131,16,-82,-81,20,,
26,-21,-61,-40,-20,-54,-34,-129,6,-155,12,-82,-81,20,,,,,,,,7,-2,-2,4,
27,-20,-53,-33,-20,-59,-39,-138,8,-100,18,-82,-81,20,,
28,-18,-49,-31,-20,-55,-35,-69,9,-58,7,-82,-81,20,,
29,-20,-54,-34,-18,-46,-28,-58,21,-28,8,-82,-81,20,,
30,-18,-53,-35,-16,-45,-29,-16,23,9,15,-82,-81,20,,
31,-18,-51,-33,-19,-51,-32,-11,6,-30,25,-82,-81,20,,,,,,,,7,-2,-2,4,
32,-15,-42,-27,-16,-49,-33,-29,24,-51,16,-82,-81,20,,
33,-15,-44,-29,-17,-47,-30,-95,14,-97,6,-82,-81,20,,
34,-17,-48,-31,-14,-41,-27,-92,19,-92,8,-82,-81,20,,
35,-18,-50,-31,-16,-46,-29,-105,13,-134,22,-82,-81,20,,
36,-15,-43,-27,-17,-48,-30,-141,17,-122,24,-82,-81,20,,
37,-12,-37,-24,-16,-46,-29,-74,9,-82,10,-82,-81,20,,,,,,,,7,-2,-2,4,
38,-14,-41,-26,-13,-40,-26,-124,14,-98,9,-82,-81,20,,
39,-14,-45,-30,-13,-37,-23,-118,22,-115,17,-82,-81,20,,
40,-11,-39,-27,-10,-27,-16,-98,22,-58,19,-82,-81,20,,
41,-4,-7,-2,1,0,0,-28,13,-57,21,-82,-81,20,,
42,7,21,15,13,30,18,-79,24,-111,20,-82,-81,20,,
43,13,36,24,17,40,24,-124,27,-134,21,-82,-81,20,,,,,,,,7,-2,-2,4,
44,10,20,11,7,15,9,-98,12,-114,30,-82,-81,20,,
45,4,4,1,-4,-17,-12,-107,17,-139,22,-82,-81,20,,
46,-5,-21,-15,-13,-42,-28,-158,24,-155,22,-82,-81,20,,
47,-16,-43,-26,-13,-40,-26,-150,27,-162,21,-82,-81,20,,,,,,,,7,-2,-2,4,
48,-15,-46,-30,-13,-36,-22,-179,23,-169,32,-82,-81,20,,,,,,,,7,-2,-2,4,
49,-13,-40,-26,-16,-42,-25,-150,22,-156,24,-82,-81,20,,
50,-13,-38,-24,-15,-41,-25,-187,21,-193,20,-82,-81,20,,
51,-14,-36,-21,-14,-40,-25,-139,28,-120,23,-82,-81,20,,
52,-13,-41,-27,0,68,69,-151,24,-136,20,-82,-81,20,,
53,126,391,266,245,776,532,-98,16,-84,28,-82,-81,20,,
54,340,913,574,147,276,130,-68,26,-54,25,-82,-81,20,,,,,,,,7,-2,-2,4,
55,-47,-219,-171,-119,-237,-117,-52,23,-64,18,-82,-81,20,,
56,-25,-73,-47,-22,-61,-38,-87,26,-86,25,-82,-81,20,,
57,-20,-57,-36,-19,-51,-31,-123,23,-164,21,-82,-81,20,,
58,-19,-55,-35,-17,-50,-32,-179,19,-182,22,-82,-81,20,,
59,-18,-49,-30,-20,-57,-36,-199,26,-190,33,-82,-81,20,,
60,-18,-50,-31,-17,-53,-35,-180,28,-198,29,-82,-81,20,,
61,-19,-53,-33,-16,-47,-30,-194,32,-215,31,-82,-81,20,,
62,-15,-42,-26,-10,-30,-19,-236,36,-239,30,-82,-81,20,,,,26.2,,,,7,-2,-2,4,
63,-9,-27,-17,-9,-21,-11,-203,19,-183,20,-82,-81,20,,
64,1,2,2,1,0,0,-155,23,-133,27,-82,-81,20,,
65,5,15,11,8,20,13,-161,19,-180,24,-82,-81,20,,
66,11,28,18,14,41,28,-176,26,-216,20,-82,-81,20,,,,,,,,7,-2,-2,4,
67,20,53,34,22,63,42,-242,9,-223,20,-82,-81,20,,
68,26,72,47,30,82,53,-200,18,-245,31,-82,-81,20,,
69,40,103,64,41,112,72,-187,30,-169,13,-82,-81,20,,
70,47,125,79,54,140,87,-159,32,-189,29,-82,-81,20,,
71,54,142,89,59,157,99,-234,34,-216,26,-82,-81,20,,
72,59,155,97,62,163,102,-217,15,-189,14,-82,-81,20,,,,,,,,7,-2,-2,4,
73,65,165,101,60,151,92,-185,20,-132,24,-82,-81,20,,
74,53,139,87,48,123,76,-105,27,-62,27,-82,-81,20,,
75,40,98,59,32,80,49,-37,23,-20,29,-82,-81,20,,
76,22,43,22,9,16,8,-25,32,-42,40,-82,-81,20,,
77,-2,-25,-22,-20,-64,-43,-37,23,-14,30,-82,-81,20,,
78,-23,-63,-39,-23,-67,-43,-17,37,-32,24,-82,-81,20,,,,,,,,7,-2,-2,4,
79,-24,-65,-40,-21,-61,-39,-40,29,-32,28,-82,-81,20,,
80,-24,-70,-45,-23,-63,-39,-76,22,-69,29,-82,-81,20,,
81,-22,-65,-42,-24,-67,-42,-74,29,-98,26,-82,-81,20,,
82,-23,-62,-38,-23,-66,-42,-67,19,-22,27,-82,-81,20,,
83,-22,-60,-37,-19,-60,-40,-26,13,-49,19,-82,-81,20,,,19,,,,,7,-2,-2,4,
84,-23,-64,-40,-20,-55,-34,-68,24,-72,21,-82,-81,20,,
85,-20,-64,-43,-21,-57,-35,-99,26,-86,17,-82,-81,20,,
86,-21,-62,-40,-23,-64,-40,-83,3,-91,18,-82,-81,20,,
87,-21,-56,-34,-20,-61,-40,-98,12,-46,22,-82,-81,20,,
88,-19,-55,-35,-18,-55,-36,-25,21,-63,11,-82,-81,20,,
89,-19,-60,-40,-18,-51,-32,-123,13,-134,5,-82,-81,20,,,,,,,,7,-2,-2,4,
90,-20,-58,-37,-20,-55,-34,-129,13,-120,9,-82,-81,20,,
91,-18,-51,-32,-19,-58,-38,-138,10,-157,15,-82,-81,20,,
92,-17,-49,-31,-17,-54,-36,-181,8,-160,17,-82,-81,20,,
93,-17,-52,-34,-15,-48,-32,-108,21,-87,21,-82,-81,20,,119,,,,,,,,,,
94,-18,-56,-37,-20,-51,-30,-100,14,-123,21,-82,-81,20,,,,,,,,7,-2,-2,4,
95,-15,-49,-33,-18,-54,-35,-139,22,-147,26,-82,-81,20,,,,,,,,7,-2,-2,4,
96,-15,-47,-31,-16,-52,-35,-128,13,-111,14,-82,-81,20,,
97,-15,-47,-31,-16,-49,-32,-78,9,-80,12,-82,-81,20,,
98,-18,-53,-34,-15,-44,-28,-58,16,-21,8,-82,-81,20,,
99,-15,-49,-33,-16,-44,-28,5,13,-26,26,-82,-81,20,,
100,-17,-45,-28,-16,-48,-31,-84,2,-129,13,-82,-81,20,,
101,-16,-43,-26,-15,-47,-31,-134,24,-140,10,-82,-81,20,,,,,,,,7,-2,-2,4,
102,-14,-42,-27,-13,-41,-28,-81,15,-64,2,-82,-81,20,,
103,-17,-49,-32,-15,-40,-25,-69,9,-83,2,-82,-81,20,,
104,-14,-40,-26,-10,-26,-16,-66,12,-45,10,-82,-81,20,,
105,0,-3,-3,2,4,2,-69,1,-79,1,-82,-81,20,,
106,8,25,17,12,32,20,-76,3,-85,8,-82,-81,20,,,,,,,,7,-2,-2,4,
107,13,35,22,14,34,20,-122,7,-133,7,-82,-81,20,,
108,7,16,9,5,14,9,-88,9,-50,3,-82,-81,20,,
109,3,3,0,-4,-18,-14,-55,2,-27,2,-82,-81,20,,
110,-8,-25,-17,-14,-43,-29,18,2,15,-10,-82,-81,20,,
111,-17,-43,-26,-14,-39,-25,8,-2,-6,-13,-82,-81,20,,
112,-17,-46,-29,-14,-36,-22,-7,-12,-25,-21,-82,-81,20,,,,,,,,7,-2,-2,4,
113,-16,-43,-27,-17,-43,-26,-30,-18,-58,2,-82,-81,20,,
114,-13,-35,-22,-15,-44,-29,-44,-3,-68,-20,-82,-81,20,,
115,-12,-34,-22,-14,-38,-24,-71,-12,-19,-17,-82,-81,20,,
116,-15,-46,-31,83,187,105,5,-7,38,-6,-82,-81,20,,
117,141,435,295,277,828,551,53,-22,56,-15,-82,-81,20,,
118,341,869,529,115,203,89,45,-10,46,-10,-82,-81,20,,,,,,,,7,-2,-2,4,
119,-70,-259,-189,-97,-193,-95,80,-3,102,-9,-82,-81,20,,
120,-29,-75,-45,-23,-59,-35,104,-16,140,-19,-82,-81,20,,
121,-18,-55,-36,-21,-53,-31,173,0,174,-12,-82,-81,20,,
122,-17,-55,-37,-18,-54,-35,173,-14,126,-7,-82,-81,20,,
123,-17,-50,-32,-19,-56,-36,112,-3,116,7,-82,-81,20,,
124,-18,-50,-31,-19,-55,-35,80,-3,70,-12,-82,-81,20,,
125,-18,-53,-34,-16,-44,-27,56,-12,41,-18,-82,-81,20,,,,,,,,7,-2,-2,4,
126,-14,-39,-24,-11,-30,-18,21,-18,31,-23,-82,-81,20,,
127,-9,-27,-17,-5,-19,-13,28,-23,76,-19,-82,-81,20,,
128,-1,-1,1,3,3,1,45,-14,56,-12,-82,-81,20,,
129,6,15,10,11,25,15,33,-14,12,-9,-82,-81,20,,
130,12,28,17,17,45,29,-5,-16,-13,-25,-82,-81,20,,
131,22,55,34,23,63,41,25,-20,36,-8,-82,-81,20,,
132,28,73,46,32,84,53,46,4,34,-11,-82,-81,20,,,,,,,,7,-2,-2,4,
133,38,104,67,42,113,72,33,-17,-20,-20,-82,-81,20,,
134,48,127,80,53,137,85,-53,-12,-79,-14,-82,-81,20,,
135,54,144,91,59,158,100,-101,-12,-52,-6,-82,-81,20,,
136,59,157,99,60,160,101,-37,-20,-33,-21,-82,-81,20,,
137,62,162,101,57,147,91,-46,-23,-8,-20,-82,-81,20,,
138,52,136,85,45,120,76,33,-13,71,-20,-82,-81,20,,,,,,,,7,-2,-2,4,
139,38,95,58,32,76,45,97,-30,125,-24,-82,-81,20,,
140,18,37,20,6,10,5,90,-36,106,-30,-82,-81,20,,
141,46,20,-26,-24,-68,-44,100,-26,104,-23,-82,-81,20,,
142,-25,-64,-39,-26,-71,-45,87,-23,32,-14,-82,-81,20,,
143,-24,-64,-40,-24,-64,-40,-16,-25,-36,-15,-82,-81,20,,
144,-26,-71,-45,-23,-62,-39,-2,-29,-1,-21,-82,-81,20,,
145,-24,-67,-43,-25,-66,-41,12,-16,-73,-15,-82,-81,20,,118,,,,,,7,-2,-2,4,
146,-24,-61,-37,-25,-66,-41,-47,-15,-28,-24,-82,-81,20,,
147,-21,-58,-37,-22,-61,-39,95,-21,106,-20,-82,-81,20,,
148,-23,-64,-41,-21,-57,-36,126,-26,17,-21,-82,-81,20,,
149,-23,-63,-40,-22,-57,-35,-4,-33,75,2,-82,-81,20,,
150,-22,-60,-38,-22,-60,-38,67,-17,172,-6,-82,-81,20,,
151,-21,-53,-32,-22,-60,-38,77,-11,34,-27,-82,-81,20,,,,,,,,7,-2,-2,4,
152,-22,-56,-34,-20,-55,-35,264,-36,441,-3,-82,-81,20,,
153,-22,-60,-38,-19,-50,-31,240,-19,302,0,-82,-81,20,,
154,-22,-58,-36,-20,-55,-35,138,-54,359,-33,-82,-81,20,,
155,-19,-50,-31,-21,-58,-37,481,-15,472,22,-82,-81,20,,,,,,,,7,-2,-2,4,
156,-19,-49,-30,-19,-54,-35,143,6,144,-35,-82,-81,20,,
157,-20,-53,-33,-17,-47,-30,198,2,-65,-34,-82,-81,20,,
158,-20,-57,-37,-18,-49,-31,-231,-60,119,-64,-82,-81,20,,
159,-18,-50,-32,-18,-54,-36,590,-54,955,-49,-82,-81,20,,
160,-15,-45,-30,-18,-52,-34,1244,-40,1362,-58,-82,-81,20,,
161,-15,-45,-30,-18,-48,-30,1356,-42,967,-17,-82,-81,20,,,,,,,,7,-2,-2,4,
162,-19,-52,-33,-15,-42,-27,606,-38,397,5,-82,-81,20,,
163,-17,-49,-32,-15,-43,-28,82,-18,19,-15,-82,-81,20,,
164,-15,-41,-26,-18,-49,-31,179,-21,273,4,-82,-81,20,,
165,-14,-41,-27,-16,-46,-30,295,22,84,-20,-82,-81,20,,118,,,,,,7,-2,-2,4,
166,-18,-44,-26,-16,-42,-26,59,-7,127,-40,-82,-81,20,,
167,-16,-46,-30,-17,-41,-24,490,-33,794,-27,-82,-81,20,,
168,-14,-39,-25,-12,-27,-15,1000,-41,1230,-35,-82,-81,20,,
169,-2,-2,0,2,5,3,1322,-71,1319,-11,-82,-81,20,,
170,8,25,17,12,32,20,780,3,578,-46,-82,-81,20,,
171,13,36,23,12,33,21,779,-48,1050,-48,-82,-81,20,,
172,8,17,9,5,13,8,1271,-53,1291,-15,-82,-81,20,,
173,3,4,1,-3,-19,-16,1154,-41,1190,-33,-82,-81,20,,
174,-9,-27,-18,-16,-45,-29,1190,-27,911,-14,-82,-81,20,,,,,,,,7,-2,-2,4,
175,-14,-42,-28,-14,-39,-25,767,-35,897,-41,-82,-81,20,,
176,-15,-44,-29,-14,-36,-22,1101,-53,1157,-24,-82,-81,20,,
177,-15,-42,-27,-17,-44,-27,485,6,328,-7,-82,-81,20,,
178,-15,-39,-24,-18,-46,-28,292,-44,-111,-2,-82,-81,20,,
179,-17,-40,-23,-16,-40,-24,-603,21,-1004,28,-82,-81,20,,
180,-16,-55,-39,31,168,138,-1311,37,-1605,26,-82,-81,20,,,,,,,,7,-2,-2,4,
181,151,474,324,301,866,565,-1869,27,-2117,44,-82,-81,20,,
182,341,785,445,86,120,34,-2249,25,-2374,49,-82,-81,20,,
183,-93,-291,-198,-78,-157,-79,-2405,56,-2332,40,-82,-81,20,,
184,-30,-74,-44,-22,-56,-34,-1922,1,-1692,-7,-82,-81,20,,
185,-21,-57,-36,-19,-52,-33,-1427,9,-1439,50,-82,-81,20,,
186,-19,-57,-38,-21,-55,-34,-1171,25,-1028,1,-82,-81,20,,,,,,,,7,-2,-2,4,
187,-18,-48,-30,-21,-58,-37,-896,-6,-793,-6,-82,-81,20,,
188,-17,-47,-30,-21,-55,-34,-666,16,-627,11,-82,-81,20,,
189,-20,-53,-33,-20,-47,-27,-560,5,-541,4,-82,-81,20,,
190,-13,-37,-24,-13,-32,-19,-527,-1,-525,8,-82,-81,20,,
191,-8,-23,-15,-8,-19,-11,-483,-7,-522,8,-82,-81,20,,,,,,,,7,-2,-2,4,
192,1,2,1,0,3,3,-508,6,-499,11,-82,-81,20,,
193,5,16,11,8,24,16,-457,4,-394,-14,-82,-81,20,,
194,10,28,18,14,45,31,-383,-5,-356,1,-82,-81,20,,
195,20,55,36,23,64,42,-331,-7,-330,15,-82,-81,20,,
196,27,74,48,30,83,54,-346,12,-312,-9,-82,-81,20,,
197,38,105,68,44,118,75,-323,10,-373,0,-82,-81,20,,,,,,,,7,-2,-2,4,
198,46,126,81,52,138,87,-379,1,-386,2,-82,-81,20,,
199,52,141,90,56,155,100,-352,-5,-370,-11,-82,-81,20,,
200,60,159,100,60,163,104,-406,2,-373,3,-82,-81,20,,
201,61,161,101,54,142,89,-347,4,-299,11,-82,-81,20,,,,,,,,7,-2,-2,4,
202,50,133,84,48,119,72,-272,19,-236,16,-82,-81,20,,
203,36,89,54,29,70,42,-248,8,-258,-4,-82,-81,20,,
204,16,33,17,6,5,-1,-242,-2,-295,8,-82,-81,20,,
205,-9,-36,-27,-23,-68,-45,-361,5,-372,28,-82,-81,20,,
206,-23,-62,-39,-25,-69,-44,-263,13,-204,-6,-82,-81,20,,
207,-24,-63,-39,-23,-63,-40,-137,2,-114,9,-82,-81,20,,,,,,,,7,-2,-2,4,
208,-25,-69,-44,-21,-60,-39,-121,6,-152,-2,-82,-81,20,,
209,-21,-64,-43,-24,-64,-40,-204,-7,-253,-4,-82,-81,20,,
210,-21,-58,-37,-24,-68,-44,-241,13,-248,11,-82,-81,20,,
211,-22,-60,-38,-20,-60,-40,-256,16,-233,20,-82,-81,20,,
212,-24,-66,-42,-21,-58,-37,-247,17,-257,10,-82,-81,20,,
213,-23,-65,-42,-20,-57,-37,-259,20,-273,10,-82,-81,20,,
214,-20,-59,-39,-22,-62,-40,-250,2,-219,9,-82,-81,20,,,,,,,,7,-2,-2,4,
215,-19,-54,-34,-20,-60,-39,-257,18,-270,11,-82,-81,20,,
216,-20,-58,-37,-20,-56,-35,-225,14,-241,17,-82,-81,20,,
217,-22,-62,-39,-19,-51,-31,-219,17,-198,23,-82,-81,20,,
218,-20,-59,-38,-21,-57,-35,-199,24,-185,27,-82,-81,20,,
219,-19,-52,-32,-22,-59,-36,-167,9,-169,12,-82,-81,20,,
220,-18,-51,-32,-18,-54,-35,-162,11,-179,4,-82,-81,20,,,,,,,,7,-2,-2,4,
221,-19,-55,-35,-17,-49,-31,-176,10,-190,23,-82,-81,20,,
222,-18,-56,-37,-17,-50,-32,-161,17,-113,21,-82,-81,20,,
223,-16,-50,-33,-19,-55,-35,-73,0,-82,17,-82,-81,20,,
224,-18,-47,-28,-19,-55,-35,-118,26,-189,27,-82,-81,20,,
225,-18,-50,-31,-15,-46,-30,-244,25,-269,18,-82,-81,20,,
226,-16,-52,-35,-13,-42,-28,-266,8,-225,21,-82,-81,20,,,,,,,,7,-2,-2,4,
227,-17,-51,-33,-18,-48,-29,-177,27,-174,34,-82,-81,20,,
228,-15,-44,-28,-18,-53,-34,-206,19,-218,29,-82,-81,20,,
229,-14,-43,-28,-16,-49,-32,-207,18,-195,5,-82,-81,20,,
230,-15,-45,-29,-16,-43,-26,-181,19,-153,14,-82,-81,20,,
231,-16,-49,-32,-13,-40,-26,-116,14,-91,24,-82,-81,20,,
232,-13,-38,-24,-11,-28,-16,-90,18,-76,25,-82,-81,20,,,,,,,,7,-2,-2,4,
233,-1,-4,-2,3,4,2,-53,36,-23,34,-82,-81,20,,
234,8,26,19,12,33,22,-50,33,-61,28,-82,-81,20,,
235,14,32,19,14,30,17,-98,30,-107,20,-82,-81,20,,
236,6,12,7,5,9,5,-114,28,-126,26,-82,-81,20,,
237,2,-2,-4,-5,-22,-17,-115,29,-125,20,-82,-81,20,,,,,,,,7,-2,-2,4,
238,-11,-33,-21,-15,-46,-31,-163,19,-157,14,-82,-81,20,,
239,-15,-42,-27,-15,-40,-25,-141,25,-163,36,-82,-81,20,,
240,-15,-45,-30,-14,-39,-25,-135,38,-118,26,-82,-81,20,,
241,-14,-42,-28,-16,-44,-28,-92,22,-96,24,-82,-81,20,,
242,-13,-37,-24,-15,-44,-29,-136,29,-165,26,-82,-81,20,,
243,-15,-37,-22,-15,-39,-24,-138,26,-124,22,-82,-81,20,,,19,,,,,7,-2,-2,4,
244,-15,-59,-44,49,209,161,-128,25,-134,27,-82,-81,20,,
245,164,509,345,320,892,572,-129,26,-144,28,-82,-81,20,,
246,338,703,366,70,54,-16,-147,24,-153,26,-82,-81,20,,
247,-105,-310,-204,-61,-127,-66,-162,31,-147,32,-82,-81,20,,
248,-28,-68,-40,-20,-53,-33,-129,35,-181,23,-82,-81,20,,
249,-20,-55,-35,-19,-50,-31,-189,24,-178,30,-82,-81,20,,,,,,,,7,-2,-2,4,
250,-20,-56,-36,-20,-54,-34,-204,28,-208,30,-82,-81,20,,
251,-18,-51,-33,-19,-54,-35,-158,37,-108,30,-82,-81,20,,
252,-19,-50,-31,-19,-52,-33,-58,34,-17,31,-82,-81,20,,
253,-20,-53,-33,-17,-42,-25,-20,21,-72,29,-82,-81,20,,,,,,,,7,-2,-2,4,
254,-13,-37,-24,-12,-29,-17,-87,30,-94,37,-82,-81,20,,
255,-10,-25,-15,-8,-18,-10,-110,28,-73,29,-82,-81,20,,
0,-1,1,2,1,3,2,-57,30,-68,34,-82,-81,20,,
1,3,12,9,7,25,18,-49,32,-55,26,-82,-81,20,,
2,9,26,17,18,52,34,-128,35,-170,19,-82,-81,20,,
3,21,58,37,24,67,43,-220,28,-231,31,-82,-81,20,,,,,,,,7,-2,-2,4,
4,29,81,52,33,89,56,-198,25,-193,24,-82,-81,20,,
5,38,109,71,44,118,74,-222,24,-206,28,-82,-81,20,,
6,50,133,83,50,139,89,-136,32,-109,21,-82,-81,20,,
7,54,145,91,57,156,99,-139,28,-192,37,-82,-81,20,,
8,59,160,101,61,165,104,-188,20,-165,17,-82,-81,20,,
9,61,162,101,55,145,90,-210,21,-240,31,-82,-81,20,,117,19,,,,,7,-2,-2,4,
10,49,134,85,45,118,73,-187,35,-159,30,-82,-81,20,,
11,33,87,54,26,66,40,-166,29,-148,40,-82,-81,20,,
12,15,29,14,3,-1,-4,-153,35,-204,33,-82,-81,20,,
13,-12,-44,-32,-27,-72,-45,-210,23,-193,18,-82,-81,20,,
14,-26,-65,-39,-24,-68,-44,-193,22,-211,28,-82,-81,20,,,,,,,,7,-2,-2,4,
15,-24,-67,-43,-23,-62,-39,-141,37,-79,19,-82,-81,20,,
16,-25,-69,-44,-25,-63,-38,-72,23,-98,31,-82,-81,20,,
17,-23,-64,-41,-24,-65,-41,-109,28,-183,30,-82,-81,20,,
18,-22,-59,-37,-24,-66,-42,-193,25,-204,38,-82,-81,20,,
19,-24,-60,-36,-22,-60,-38,-228,27,-245,25,-82,-81,20,,
20,-23,-63,-40,-21,-55,-34,-262,29,-265,29,-82,-81,20,,,,,,,,7,-2,-2,4,
21,-24,-64,-40,-22,-58,-36,-253,24,-232,22,-82,-81,20,,
22,-21,-57,-36,-23,-61,-38,-207,10,-213,20,-82,-81,20,,
23,-22,-57,-35,-22,-61,-39,-209,17,-168,23,-82,-81,20,,
24,-22,-55,-33,-21,-55,-34,-158,30,-136,24,-82,-81,20,,
25,-21,-59,-38,-19,-52,-33,-85,36,-65,25,-82,-81,20,,,,,,,,7,-2,-2,4,
26,-21,-58,-37,-20,-55,-35,-78,29,-47,22,-82,-81,20,,
27,-19,-50,-31,-21,-58,-37,-59,17,-85,26,-82,-81,20,,
28,-19,-49,-30,-20,-54,-34,-141,18,-186,24,-82,-81,20,,
29,-19,-52,-33,-19,-47,-28,-214,17,-204,12,-82,-81,20,,117,,,,,,7,-2,-2,4,
30,-21,-57,-36,-19,-50,-31,-229,15,-229,26,-82,-81,20,,
31,-20,-52,-32,-20,-53,-33,-233,20,-230,23,-82,-81,20,,
32,-20,-47,-27,-20,-52,-32,-202,22,-152,22,-82,-81,20,,
33,-17,-47,-30,-19,-48,-29,-99,23,-30,12,-82,-81,20,,
34,-19,-53,-34,-16,-40,-24,1,22,-31,21,-82,-81,20,,
35,-19,-48,-29,-18,-46,-28,-77,9,-52,17,-82,-81,20,,,,,,,,7,-2,-2,4,
36,-19,-44,-25,-18,-49,-31,-26,18,-11,5,-82,-81,20,,
37,-16,-41,-25,-16,-42,-26,36,7,34,-1,-82,-81,20,,
38,-16,-43,-27,-15,-39,-24,27,14,34,7,-82,-81,20,,
39,-17,-47,-30,-14,-36,-22,74,10,78,14,-82,-81,20,,,,,,,,7,-2,-2,4,
40,-13,-34,-21,-9,-20,-11,65,5,74,0,-82,-81,20,,
41,-3,0,3,3,10,7,69,0,73,6,-82,-81,20,,
42,7,28,21,13,36,23,55,16,89,8,-82,-81,20,,
43,12,34,22,11,30,19,95,1,93,10,-82,-81,20,,
44,6,15,9,5,13,8,65,6,43,5,-82,-81,20,,
45,1,-1,-2,-6,-22,-16,62,-2,72,0,-82,-81,20,,,,,,,,7,-2,-2,4,
46,-12,-32,-20,-15,-43,-28,91,-3,70,-4,-82,-81,20,,
47,-19,-46,-27,-15,-40,-25,31,-10,51,-13,-82,-81,20,,
48,-16,-44,-28,-15,-38,-23,73,-14,103,-19,-82,-81,20,,
49,-15,-42,-27,-15,-42,-27,119,-8,134,-3,-82,-81,20,,117,,,,,,7,-2,-2,4,
50,-14,-35,-21,-17,-43,-26,110,-13,120,-15,-82,-81,20,,
51,-14,-33,-19,-14,-39,-25,119,-6,113,-5,-82,-81,20,,
52,1,-30,-31,68,254,186,61,-8,53,-17,-82,-81,20,,
53,182,552,371,329,904,576,102,-11,97,-8,-82,-81,20,,
54,299,604,305,43,-10,-52,61,-19,58,-17,-82,-81,20,,
55,-114,-320,-205,-51,-112,-60,69,-24,78,-22,-82,-81,20,,,,,,,,7,-2,-2,4,
56,-26,-66,-39,-21,-53,-31,68,-12,58,-4,-82,-81,20,,
57,-20,-58,-37,-20,-52,-31,64,-15,79,-20,-82,-81,20,,
58,-19,-53,-33,-21,-55,-33,55,-17,35,-6,-82,-81,20,,
59,-18,-48,-29,-20,-56,-35,30,-15,15,-20,-82,-81,20,,,,,,,,7,-2,-2,4,
60,-20,-51,-30,-21,-55,-33,26,-14,3,-20,-82,-81,20,,
61,-18,-53,-34,-16,-39,-22,27,-13,-2,-20,-82,-81,20,,
62,-13,-38,-24,-12,-32,-19,-63,-18,-93,-11,-82,-81,20,,
63,-10,-25,-14,-6,-15,-8,-55,-16,-20,-22,-82,-81,20,,
64,-1,2,4,1,4,4,-7,-16,10,-13,-82,-81,20,,
65,6,16,11,8,26,19,23,-15,-20,-28,-82,-81,20,,,,,,,,7,-2,-2,4,
66,11,31,21,17,53,37,-51,-19,-79,-21,-82,-81,20,,
67,21,57,37,26,69,44,-64,-16,-12,-6,-82,-81,20,,
68,29,79,51,34,90,57,6,-16,17,-19,-82,-81,20,,
69,41,113,73,45,121,77,20,-17,33,-17,-82,-81,20,,
70,46,127,82,51,140,90,41,-17,79,-30,-82,-81,20,,
71,54,145,92,58,159,102,98,-27,125,-25,-82,-81,20,,117,,,,,,7,-2,-2,4,
72,59,161,103,61,166,106,144,-29,124,-18,-82,-81,20,,
73,60,158,99,55,142,88,63,-17,63,-25,-82,-81,20,,
74,49,132,84,46,118,73,33,-15,25,-26,-82,-81,20,,
75,33,84,52,25,62,38,30,-24,12,-24,-82,-81,20,,
76,12,24,13,1,-7,-7,0,-24,5,-21,-82,-81,20,,,,,,,,7,-2,-2,4,
77,-15,-47,-31,-25,-69,-43,-7,-16,-5,-16,-82,-81,20,,
78,-21,-61,-39,-25,-69,-43,-11,-21,2,-21,-82,-81,20,,
79,-24,-66,-41,-22,-60,-37,2,-9,18,-11,-82,-81,20,,
80,-24,-67,-42,-23,-61,-37,36,-21,33,-7,-82,-81,20,,
81,-23,-64,-40,-25,-66,-40,37,-28,26,-20,-82,-81,20,,,,,,,,7,-2,-2,4,
82,-21,-57,-35,-23,-64,-40,52,-11,64,-10,-82,-81,20,,
83,-23,-60,-36,-21,-58,-36,76,-2,79,-9,-82,-81,20,,
84,-23,-63,-39,-21,-56,-34,117,-9,136,-13,-82,-81,20,,
85,-23,-62,-38,-24,-60,-35,150,-9,151,-2,-82,-81,20,,
86,-21,-57,-35,-23,-63,-39,90,-17,42,-24,-82,-81,20,,,,,,,,7,-2,-2,4,
87,-19,-53,-33,-20,-58,-37,13,-14,37,-18,-82,-81,20,,
88,-21,-57,-35,-20,-54,-33,3,-16,5,-15,-82,-81,20,,
89,-23,-61,-37,-18,-49,-30,9,-16,13,-1,-82,-81,20,,
90,-19,-54,-34,-22,-56,-33,18,-20,16,-6,-82,-81,20,,
91,-17,-48,-30,-20,-56,-35,31,-14,18,-11,-82,-81,20,,
92,-19,-49,-29,-19,-52,-32,17,-12,-46,-23,-82,-81,20,,,,,,,,7,-2,-2,4,
93,-19,-52,-32,-17,-46,-28,-106,-19,-108,-21,-82,-81,20,,
94,-17,-52,-34,-18,-49,-30,-103,-24,-53,-29,-82,-81,20,,
95,-16,-46,-29,-18,-51,-32,-25,-18,-40,-13,-82,-81,20,,
96,-16,-45,-28,-18,-52,-33,7,-11,54,-14,-82,-81,20,,
97,-16,-45,-28,-17,-46,-28,55,-7,72,-14,-82,-81,20,,
98,-17,-50,-32,-14,-41,-26,129,-5,92,-16,-82,-81,20,,,,,,,,7,-2,-2,4,
99,-16,-47,-30,-17,-44,-26,109,-23,159,-27,-82,-81,20,,
100,-14,-39,-24,-16,-48,-31,157,-24,125,-22,-82,-81,20,,
101,-16,-41,-24,-15,-42,-26,66,-15,39,-37,-82,-81,20,,
102,-17,-46,-28,-14,-40,-25,56,-14,148,-6,-82,-81,20,,
103,-15,-47,-31,-12,-36,-23,174,-6,187,-15,-82,-81,20,,,,,,,,7,-2,-2,4,
104,-10,-29,-18,-8,-19,-10,193,-26,140,-3,-82,-81,20,,,,,,,,7,-2,-2,4,
105,2,4,3,5,13,9,151,-8,224,-4,-82,-81,20,,
106,12,32,21,14,38,25,229,1,224,-7,-82,-81,20,,
107,14,34,21,12,31,20,147,-8,68,-15,-82,-81,20,,
108,7,13,7,4,9,6,22,-14,-15,-7,-82,-81,20,,
109,2,2,1,-7,-24,-16,-24,-28,90,-25,-82,-81,20,,,,,,,,7,-2,-2,4,
110,-11,-33,-21,-13,-38,-24,203,-24,201,-32,-82,-81,20,,117,,,,,,7,-2,-2,4,
111,-15,-40,-24,-15,-37,-21,214,-11,186,-16,-82,-81,20,,
112,-16,-43,-26,-14,-36,-21,173,-21,156,-11,-82,-81,20,,
113,-14,-39,-24,-13,-38,-24,200,-27,298,-19,-82,-81,20,,
114,-13,-36,-22,-15,-41,-25,398,-22,385,9,-82,-81,20,,,,,,,,7,-2,-2,4,
115,-14,-37,-22,-12,-34,-21,220,-3,66,-8,-82,-81,20,,
116,-24,-25,-1,87,305,218,-70,2,-252,8,-82,-81,20,,
117,197,619,422,334,910,576,-438,12,-547,15,-82,-81,20,,
118,246,492,247,9,-80,-88,-594,16,-453,-4,-82,-81,20,,
119,-121,-315,-193,-42,-98,-55,-409,18,-483,12,-82,-81,20,,
120,-27,-67,-39,-20,-53,-32,-430,12,-414,21,-82,-81,20,,,,,,,,7,-2,-2,4,
121,-21,-58,-36,-19,-51,-31,-477,27,-501,25,-82,-81,20,,
122,-18,-53,-34,-19,-55,-35,-495,19,-513,28,-82,-81,20,,
123,-21,-52,-30,-20,-57,-36,-493,-1,-347,-18,-82,-81,20,,
124,-17,-47,-29,-17,-52,-34,-397,5,-433,19,-82,-81,20,,
125,-21,-54,-32,-15,-39,-23,-429,8,-381,13,-82,-81,20,,,,,,,,7,-2,-2,4,
126,-13,-38,-24,-13,-32,-18,-317,2,-245,11,-82,-81,20,,
127,-6,-19,-12,-6,-16,-9,-208,-15,-192,6,-82,-81,20,,
128,0,4,5,3,5,3,-277,3,-286,-9,-82,-81,20,,
129,5,16,12,12,31,20,-121,-10,-117,1,-82,-81,20,,
130,12,31,20,19,56,37,-40,-9,-18,3,-82,-81,20,,
131,25,60,35,24,65,42,5,7,-25,20,-82,-81,20,,,,26.2,,,,7,-2,-2,4,
132,30,82,53,34,91,58,-54,7,-41,-1,-82,-81,20,,
133,41,114,73,45,122,77,-64,1,-72,9,-82,-81,20,,
134,47,130,83,52,144,92,-95,12,-131,9,-82,-81,20,,
135,54,144,90,55,156,101,-68,7,-45,12,-82,-81,20,,,,,,,,7,-2,-2,4,
136,60,161,101,62,165,103,-27,3,-26,9,-82,-81,20,,
137,59,158,99,54,141,87,-12,-4,-46,-4,-82,-81,20,,
138,47,127,81,44,113,70,-92,6,-151,-6,-82,-81,20,,
139,33,82,50,24,60,37,-207,0,-229,3,-82,-81,20,,
140,11,24,14,-1,-12,-10,-226,-10,-180,4,-82,-81,20,,
141,-17,-50,-32,-25,-71,-45,-117,-4,-72,4,-82,-81,20,,,,,,,,7,-2,-2,4,
142,-23,-62,-38,-25,-67,-41,-51,8,-69,-2,-82,-81,20,,
143,-24,-65,-40,-24,-62,-37,-105,5,-100,-3,-82,-81,20,,
144,-24,-67,-42,-22,-60,-37,-145,4,-151,18,-82,-81,20,,
145,-22,-63,-40,-23,-64,-40,-147,7,-153,8,-82,-81,20,,
146,-22,-59,-36,-24,-66,-41,-161,11,-204,11,-82,-81,20,,
147,-23,-60,-36,-22,-62,-39,-185,3,-153,9,-82,-81,20,,,19,,,,,7,-2,-2,4,
148,-23,-65,-41,-22,-56,-33,-111,20,-73,15,-82,-81,20,,
149,-24,-65,-40,-21,-58,-36,-69,10,-88,4,-82,-81,20,,
150,-21,-56,-34,-20,-60,-39,-139,5,-163,6,-82,-81,20,,
151,-21,-53,-31,-18,-57,-38,-179,19,-153,1,-82,-81,20,,
152,-21,-57,-35,-20,-54,-33,-149,4,-152,7,-82,-81,20,,
153,-21,-59,-37,-20,-53,-32,-166,9,-174,15,-82,-81,20,,,,,,,,7,-2,-2,4,
154,-20,-56,-35,-19,-53,-33,-178,10,-129,19,-82,-81,20,,
155,-19,-51,-31,-21,-57,-35,-133,8,-128,4,-82,-81,20,,
156,-18,-49,-30,-19,-53,-33,-87,12,-80,-8,-82,-81,20,,
157,-21,-55,-33,-17,-47,-29,-97,-8,-114,-5,-82,-81,20,,,,,,,,7,-2,-2,4,
158,-18,-53,-34,-19,-49,-29,-124,10,-145,19,-82,-81,20,,
159,-15,-44,-28,-19,-52,-32,-151,8,-134,14,-82,-81,20,,
160,-17,-45,-27,-17,-50,-32,-119,17,-126,8,-82,-81,20,,
161,-16,-45,-28,-17,-47,-29,-111,17,-113,8,-82,-81,20,,,,,,,,7,-2,-2,4,
162,-17,-50,-32,-16,-42,-25,-101,21,-104,3,-82,-81,20,,,,,,,,7,-2,-2,4,
163,-15,-45,-29,-17,-46,-28,-115,10,-150,6,-82,-81,20,,
164,-15,-41,-25,-15,-46,-30,-140,10,-112,14,-82,-81,20,,
165,-14,-39,-24,-16,-44,-27,-51,10,-79,15,-82,-81,20,,
166,-16,-45,-28,-15,-39,-23,-82,19,-79,5,-82,-81,20,,
167,-17,-49,-31,-14,-37,-22,-59,15,-22,17,-82,-81,20,,,19,,,,,7,-2,-2,4,
168,-10,-27,-16,-6,-17,-10,-15,9,-41,22,-82,-81,20,,
169,0,5,6,5,14,10,-61,21,-61,9,-82,-81,20,,
170,11,30,20,14,38,25,-86,13,-75,18,-82,-81,20,,
171,14,33,20,11,27,17,-44,23,-67,15,-82,-81,20,,
172,8,15,8,4,5,2,-90,19,-102,13,-82,-81,20,,
173,0,-7,-6,-8,-28,-19,-126,14,-127,27,-82,-81,20,,,,,,,,7,-2,-2,4,
174,-12,-34,-21,-15,-45,-29,-93,28,-82,34,-82,-81,20,,
175,-15,-40,-24,-12,-36,-23,-125,16,-138,8,-82,-81,20,,
176,-15,-44,-28,-15,-38,-22,-106,6,-94,24,-82,-81,20,,
177,-16,-43,-26,-14,-42,-27,-103,15,-110,32,-82,-81,20,,
178,-14,-38,-23,-15,-43,-27,-145,24,-180,32,-82,-81,20,,
179,-15,-39,-23,-12,-35,-22,-166,25,-148,19,-82,-81,20,,,,,,,,7,-2,-2,4,
180,-26,2,29,99,341,242,-165,15,-190,18,-82,-81,20,,
181,211,681,470,337,914,577,-215,24,-198,15,-82,-81,20,,
182,203,396,193,-19,-150,-130,-121,9,-67,21,-82,-81,20,,
183,-119,-281,-162,-34,-88,-54,-68,28,-73,15,-82,-81,20,,
184,-24,-63,-39,-19,-51,-32,-73,29,-130,30,-82,-81,20,,,,,,,,7,-2,-2,4,
185,-20,-58,-38,-16,-47,-31,-147,30,-153,22,-82,-81,20,,
186,-18,-53,-35,-19,-53,-34,-180,25,-186,23,-82,-81,20,,
187,-17,-48,-31,-19,-55,-36,-226,16,-215,16,-82,-81,20,,
188,-16,-46,-30,-15,-49,-34,-179,16,-147,10,-82,-81,20,,
189,-17,-51,-34,-12,-34,-22,-104,17,-63,12,-82,-81,20,,
190,-10,-36,-26,-10,-28,-18,-37,3,-20,20,-82,-81,20,,,,,,,,7,-2,-2,4,
191,-6,-19,-13,-3,-8,-5,-39,14,-5,15,-82,-81,20,,
192,2,5,3,3,7,4,-3,20,-33,18,-82,-81,20,,
193,6,17,11,12,33,21,-76,36,-84,24,-82,-81,20,,
194,14,37,23,20,58,38,-91,23,-138,25,-82,-81,20,,
195,25,61,36,26,70,44,-125,23,-132,23,-82,-81,20,,
196,33,87,54,35,94,59,-141,24,-121,33,-82,-81,20,,,,,,,,7,-2,-2,4,
197,41,115,75,46,124,79,-137,29,-156,16,-82,-81,20,,
198,48,130,83,53,144,92,-186,26,-192,23,-82,-81,20,,
199,55,144,90,58,158,101,-185,25,-148,29,-82,-81,20,,
200,61,164,104,63,162,100,-138,20,-147,35,-82,-81,20,,
201,60,160,101,55,138,84,-135,37,-154,29,-82,-81,20,,
202,48,128,81,45,110,66,-195,43,-189,29,-82,-81,20,,,,,,,,7,-2,-2,4,
203,33,79,47,23,58,35,-187,33,-180,20,-82,-81,20,,
204,10,18,8,-3,-19,-16,-162,30,-102,36,-82,-81,20,,
205,-15,-51,-36,-25,-71,-46,-96,30,-159,25,-82,-81,20,,
206,-23,-63,-40,-22,-63,-41,-182,29,-130,23,-82,-81,20,,,,,,,,7,-2,-2,4,
207,-24,-65,-41,-22,-61,-39,-127,30,-168,15,-82,-81,20,,
208,-22,-67,-45,-22,-61,-39,-202,26,-199,37,-82,-81,20,,
209,-22,-63,-41,-22,-62,-40,-166,31,-123,38,-82,-81,20,,
210,-21,-57,-36,-23,-65,-42,-90,34,-60,28,-82,-81,20,,
211,-22,-60,-38,-20,-57,-37,-73,15,-77,20,-82,-81,20,,
212,-21,-61,-40,-23,-57,-34,-94,21,-134,27,-82,-81,20,,,,,,,,7,-2,-2,4,
213,-23,-63,-40,-22,-58,-36,-114,13,-97,32,-82,-81,20,,
214,-20,-53,-33,-21,-62,-41,-107,31,-107,24,-82,-81,20,,
215,-21,-53,-32,-21,-58,-37,-84,19,-83,19,-82,-81,20,,
216,-20,-55,-35,-18,-51,-33,-77,30,-56,25,-82,-81,20,,
217,-21,-58,-37,-20,-52,-32,-45,31,-86,29,-82,-81,20,,,,,,,,7,-2,-2,4,
218,-20,-53,-33,-20,-55,-35,-89,28,-62,31,-82,-81,20,,
219,-18,-49,-31,-20,-56,-36,-117,17,-140,19,-82,-81,20,,
220,-19,-50,-31,-18,-50,-32,-144,25,-165,27,-82,-81,20,,
221,-18,-52,-34,-16,-44,-28,-178,29,-129,16,-82,-81,20,,
222,-19,-53,-34,-19,-48,-29,-99,6,-61,11,-82,-81,20,,,,,,,,7,-2,-2,4,
223,-16,-45,-29,-17,-49,-31,-25,7,-29,11,-82,-81,20,,
224,-16,-44,-27,-18,-50,-31,-86,23,-112,11,-82,-81,20,,
225,-17,-47,-29,-16,-45,-28,-97,15,-78,7,-82,-81,20,,
226,-19,-52,-32,-17,-43,-25,-48,17,-38,18,-82,-81,20,,
227,-15,-46,-30,-17,-48,-30,-122,11,-162,20,-82,-81,20,,
228,-14,-40,-25,-17,-49,-31,-172,20,-152,22,-82,-81,20,,,,,,,,7,-2,-2,4,
229,-14,-39,-24,-15,-44,-28,-150,25,-159,29,-82,-81,20,,
230,-14,-44,-29,-13,-38,-24,-205,20,-289,25,-82,-81,20,,
231,-15,-47,-31,-16,-42,-25,-326,17,-292,9,-82,-81,20,,
232,-8,-26,-17,-7,-19,-11,-184,8,-133,6,-82,-81,20,,
233,2,9,8,7,18,12,-62,1,-37,0,-82,-81,20,,,,,,,,7,-2,-2,4,
234,12,33,22,17,41,25,30,5,83,-4,-82,-81,20,,
235,14,33,20,11,29,19,155,2,281,-14,-82,-81,20,,
236,5,12,8,3,3,1,324,-16,285,5,-82,-81,20,,
237,1,-6,-6,-8,-27,-18,327,-6,356,-10,-82,-81,20,,,,,,,,7,-2,-2,4,
238,-13,-36,-22,-13,-42,-28,300,-5,226,-2,-82,-81,20,,
239,-14,-41,-26,-13,-38,-24,218,2,204,-6,-82,-81,20,,
240,-15,-45,-29,-15,-39,-23,208,-11,212,0,-82,-81,20,,
241,-14,-42,-27,-14,-40,-25,212,-9,214,-7,-82,-81,20,,
242,-13,-35,-21,-14,-42,-27,219,-5,221,-10,-82,-81,20,,
243,-13,-36,-22,-16,-40,-23,190,-6,218,-11,-82,-81,20,,,,,,,,7,-2,-2,4,
244,-13,38,52,115,379,264,215,-13,168,-8,-82,-81,20,,
245,320,833,514,339,915,577,119,-4,86,-11,-82,-81,20,,
246,166,315,149,-38,-200,-162,90,-6,108,-14,-82,-81,20,,
247,-123,-248,-125,-32,-82,-50,83,-15,100,-12,-82,-81,20,,
248,-25,-64,-39,-20,-50,-30,145,-12,100,-23,-82,-81,20,,
249,-20,-58,-38,-20,-51,-31,76,-23,97,-8,-82,-81,20,,119,,,,,,7,-2,-2,4,
250,-18,-51,-33,-22,-56,-34,119,-8,99,-2,-82,-81,20,,
251,-20,-49,-29,-20,-54,-34,140,-19,121,-22,-82,-81,20,,
252,-20,-51,-31,-17,-49,-32,126,-18,85,-12,-82,-81,20,,
253,-20,-54,-34,-15,-34,-19,69,-11,74,-20,-82,-81,20,,
254,-12,-36,-24,-13,-30,-17,93,-28,95,-19,-82,-81,20,,
255,-9,-20,-11,-5,-9,-4,82,-25,68,-11,-82,-81,20,,,,,,,,7,-2,-2,4,
0,1,7,6,3,8,5,29,-18,67,-16,-82,-81,20,,
1,5,18,13,11,33,22,76,-4,64,-18,-82,-81,20,,
2,13,38,25,18,57,39,62,-14,43,-26,-82,-81,20,,
3,23,62,39,24,69,45,2,-29,0,-14,-82,-81,20,,
4,32,89,57,33,92,59,7,-22,46,-17,-82,-81,20,,,,,,,,7,-2,-2,4,
5,38,113,75,48,127,79,34,-17,51,-12,-82,-81,20,,
6,46,128,82,52,146,94,48,-13,45,-21,-82,-81,20,,
7,54,147,93,57,157,100,66,-29,56,-12,-82,-81,20,,
8,62,164,103,61,162,101,87,-28,104,-13,-82,-81,20,,
9,56,154,98,53,138,85,136,-9,137,-36,-82,-81,20,,,,,,,,7,-2,-2,4,
10,47,128,81,40,106,66,166,-22,178,-23,-82,-81,20,,
11,32,76,44,21,52,31,167,-22,122,-24,-82,-81,20,,
12,2,11,9,-5,-25,-20,100,-19,104,-24,-82,-81,20,,
13,-19,-55,-36,-26,-71,-45,105,-23,99,-31,-82,-81,20,,
14,-25,-62,-37,-24,-66,-42,127,-16,140,-28,-82,-81,20,,
15,-26,-68,-42,-23,-60,-37,111,-26,60,-22,-82,-81,20,,
16,-23,-66,-43,-24,-62,-38,11,-20,0,-9,-82,-81,20,,,,,,,,7,-2,-2,4,
17,-24,-63,-39,-24,-66,-42,38,-11,56,-16,-82,-81,20,,
18,-23,-57,-34,-24,-66,-42,92,-26,118,-29,-82,-81,20,,
19,-22,-60,-38,-20,-58,-38,135,-24,77,-20,-82,-81,20,,
20,-23,-62,-39,-23,-57,-34,53,-23,46,-21,-82,-81,20,,
21,-22,-61,-39,-24,-63,-39,41,-18,31,-14,-82,-81,20,,
22,-19,-55,-36,-23,-64,-41,62,-23,80,-17,-82,-81,20,,,,,,,,7,-2,-2,4,
23,-22,-55,-33,-20,-58,-38,92,-15,118,-16,-82,-81,20,,
24,-22,-59,-37,-20,-52,-32,158,-28,179,-27,-82,-81,20,,
25,-22,-61,-39,-20,-53,-33,166,-26,163,-29,-82,-81,20,,
26,-19,-54,-35,-19,-53,-34,123,-16,111,-17,-82,-81,20,,
27,-18,-49,-31,-19,-54,-35,78,-27,69,-28,-82,-81,20,,
28,-17,-49,-32,-17,-48,-31,80,-14,77,-21,-82,-81,20,,,,,,,,7,-2,-2,4,
29,-20,-54,-34,-19,-50,-31,92,-18,120,-13,-82,-81,20,,
30,-19,-53,-34,-18,-50,-32,128,-15,94,-10,-82,-81,20,,
31,-17,-47,-30,-20,-54,-34,122,-16,138,-17,-82,-81,20,,
32,-16,-43,-27,-17,-49,-32,142,-8,136,-12,-82,-81,20,,
33,-18,-50,-32,-15,-43,-28,137,-28,150,-30,-82,-81,20,,119,,,,,,7,-2,-2,4,
34,-17,-51,-34,-16,-41,-25,134,-25,112,-24,-82,-81,20,,
35,-14,-44,-30,-15,-45,-30,82,-38,101,-30,-82,-81,20,,
36,-14,-40,-25,-15,-46,-30,106,-22,101,-20,-82,-81,20,,
37,-16,-41,-24,-14,-43,-28,90,-27,92,-23,-82,-81,20,,
38,-16,-46,-29,-15,-40,-24,98,-14,94,-26,-82,-81,20,,
39,-16,-48,-31,-16,-40,-23,101,-27,99,-12,-82,-81,20,,,,,,,,7,-2,-2,4,
40,-9,-25,-15,-3,-12,-8,65,-18,21,-16,-82,-81,20,,
41,1,9,9,6,16,11,55,-24,110,-19,-82,-81,20,,
42,11,30,20,14,40,27,152,-6,151,0,-82,-81,20,,
43,12,29,18,8,25,18,156,-7,147,-8,-82,-81,20,,
44,4,11,8,2,1,0,145,-10,83,-4,-82,-81,20,,,,,,,,7,-2,-2,4,
45,-2,-8,-5,-10,-33,-22,35,-5,36,-25,-82,-81,20,,
46,-14,-38,-23,-14,-42,-27,70,-21,102,-19,-82,-81,20,,
47,-15,-44,-28,-13,-36,-22,133,-14,160,-14,-82,-81,20,,
48,-15,-44,-28,-15,-39,-23,135,-21,125,-19,-82,-81,20,,
49,-15,-41,-25,-15,-41,-25,143,-25,150,-17,-82,-81,20,,,,,,,,7,-2,-2,4,
50,-12,-35,-22,-13,-41,-27,113,-24,87,-26,-82,-81,20,,
51,-13,-38,-24,-12,-41,-28,102,-21,88,-11,-82,-81,20,,
52,6,88,82,134,420,286,92,-12,75,-8,-82,-81,20,,
53,260,799,540,340,901,562,59,-15,18,-16,-82,-81,20,,
54,134,252,118,-58,-242,-183,12,-20,47,-29,-82,-81,20,,
55,-110,-210,-100,-30,-80,-50,93,-22,68,-17,-82,-81,20,,,,,,,,7,-2,-2,4,
56,-23,-62,-39,-20,-51,-31,39,-16,89,-13,-82,-81,20,,
57,-21,-57,-36,-18,-49,-31,76,-17,68,-13,-82,-81,20,,
58,-17,-51,-34,-19,-56,-37,61,-6,44,-10,-82,-81,20,,
59,-19,-50,-31,-20,-57,-37,60,-15,122,-4,-82,-81,20,,
60,-17,-49,-32,-18,-50,-32,150,-2,128,-11,-82,-81,20,,
61,-16,-51,-35,-13,-34,-21,110,-20,77,-14,-82,-81,20,,
62,-12,-35,-23,-12,-29,-17,107,-8,111,-8,-82,-81,20,,,,,,,,7,-2,-2,4,
63,-6,-17,-11,0,-5,-5,101,-9,54,-4,-82,-81,20,,
64,1,7,6,3,7,4,-2,1,0,3,-82,-81,20,,
65,6,18,12,12,33,21,-26,-11,-15,-23,-82,-81,20,,
66,14,38,24,21,60,39,-5,-10,-22,-3,-82,-81,20,,
67,23,64,41,24,69,45,-22,-5,3,-6,-82,-81,20,,
68,33,92,59,37,98,61,30,-3,52,-14,-82,-81,20,,,,,,,,7,-2,-2,4,
69,43,119,76,49,130,81,64,-6,52,-2,-82,-81,20,,
70,51,131,81,54,146,93,37,-9,71,-4,-82,-81,20,,
71,57,150,94,59,160,102,72,11,69,3,-82,-81,20,,
72,63,165,103,60,158,99,50,-10,78,-3,-82,-81,20,,
73,60,156,97,55,136,82,77,1,43,-5,-82,-81,20,,
74,46,123,78,41,103,63,20,-7,11,-12,-82,-81,20,,,,,,,,7,-2,-2,4,
75,30,71,42,20,46,26,-14,-15,-2,-7,-82,-81,20,,,,,,,,7,-2,-2,4,
76,9,14,5,-7,-31,-24,-3,-14,-2,5,-82,-81,20,,
77,-19,-57,-38,-24,-69,-45,36,2,99,-8,-82,-81,20,,
78,-22,-60,-38,-22,-66,-44,130,-1,104,-2,-82,-81,20,,
79,-23,-68,-45,-24,-63,-39,93,-1,72,-5,-82,-81,20,,
80,-24,-68,-44,-23,-63,-40,69,-8,61,18,-82,-81,20,,
81,-23,-63,-40,-24,-67,-43,42,13,11,-2,-82,-81,20,,,,,,,,7,-2,-2,4,
82,-20,-56,-36,-22,-65,-43,1,5,-17,5,-82,-81,20,,
83,-23,-62,-39,-18,-57,-39,-64,-8,-74,-5,-82,-81,20,,
84,-21,-62,-41,-20,-56,-36,-40,9,40,5,-82,-81,20,,
85,-22,-61,-39,-21,-60,-39,57,2,43,-11,-82,-81,20,,
86,-20,-57,-37,-22,-63,-41,46,-11,24,4,-82,-81,20,,
87,-19,-54,-34,-18,-58,-39,-20,3,-60,-2,-82,-81,20,,,,,,,,7,-2,-2,4,
88,-20,-58,-37,-18,-53,-34,-74,8,-62,11,-82,-81,20,,
89,-19,-59,-39,-18,-53,-34,-32,0,-75,9,-82,-81,20,,
90,-17,-55,-37,-19,-58,-38,-82,11,-50,13,-82,-81,20,,
91,-17,-52,-34,-19,-58,-38,-79,8,-89,14,-82,-81,20,,,,,,,,7,-2,-2,4,
92,-19,-54,-34,-17,-51,-33,-99,20,-86,16,-82,-81,20,,
93,-18,-55,-36,-16,-48,-31,-40,18,-3,16,-82,-81,20,,,,,,,,7,-2,-2,4,
94,-16,-52,-35,-18,-52,-33,-6,4,23,5,-82,-81,20,,
95,-15,-48,-32,-18,-55,-36,18,7,49,14,-82,-81,20,,
96,-15,-47,-31,-16,-51,-34,69,6,102,12,-82,-81,20,,
97,-15,-48,-32,-15,-44,-28,75,24,94,12,-82,-81,20,,
98,-17,-51,-33,-14,-43,-28,114,16,124,26,-82,-81,20,,,,,,,,7,-2,-2,4,
99,-17,-50,-32,-16,-48,-31,111,29,35,26,-82,-81,20,,
100,-16,-45,-28,-16,-50,-33,-21,11,-37,18,-82,-81,20,,
101,-16,-46,-29,-15,-44,-28,-65,13,-42,7,-82,-81,20,,
102,-15,-46,-30,-14,-40,-25,-38,11,-44,6,-82,-81,20,,
103,-15,-45,-29,-16,-42,-25,-31,7,-33,19,-82,-81,20,,
104,-8,-21,-12,-5,-15,-9,-48,1,-13,12,-82,-81,20,,,,,,,,7,-2,-2,4,
105,3,12,10,8,21,14,32,32,32,30,-82,-81,20,,
106,12,31,20,16,42,27,17,26,55,24,-82,-81,20,,
107,13,27,15,9,23,15,72,22,65,27,-82,-81,20,,
108,7,16,10,-1,-4,-2,63,13,47,20,-82,-81,20,,,,,,,,7,-2,-2,4,
109,-2,-11,-8,-10,-35,-24,11,14,28,21,-82,-81,20,,
110,-14,-40,-25,-14,-42,-27,64,9,93,13,-82,-81,20,,
111,-15,-43,-27,-13,-37,-23,74,16,114,19,-82,-81,20,,
112,-14,-42,-27,-13,-38,-24,144,12,135,7,-82,-81,20,,
113,-13,-38,-24,-14,-43,-28,94,7,81,9,-82,-81,20,,
114,-14,-36,-21,-14,-42,-27,62,12,52,23,-82,-81,20,,
115,-13,-39,-25,-12,-46,-33,55,14,30,18,-82,-81,20,,
116,24,140,116,147,460,313,23,22,17,31,-82,-81,20,,,,,,,,7,-2,-2,4,
117,290,846,556,339,828,489,28,18,-1,32,-82,-81,20,,
118,102,169,68,-82,-280,-198,-42,26,-34,30,-82,-81,20,,
119,-88,-171,-82,-28,-75,-46,-44,39,-35,27,-82,-81,20,,
120,-18,-57,-38,-18,-52,-33,-10,36,-7,35,-82,-81,20,,,,,,,,7,-2,-2,4,
121,-20,-59,-38,-20,-51,-30,-13,25,-3,28,-82,-81,20,,
122,-18,-54,-35,-20,-58,-37,22,32,33,31,-82,-81,20,,
123,-18,-49,-30,-20,-57,-36,5,27,-33,28,-82,-81,20,,
124,-21,-55,-33,-17,-48,-30,-49,25,-19,13,-82,-81,20,,
125,-20,-52,-31,-10,-32,-21,9,24,37,30,-82,-81,20,,
126,-10,-34,-23,-10,-28,-17,61,19,53,29,-82,-81,20,,,,,,,,7,-2,-2,4,
127,-6,-14,-8,-1,-8,-7,6,20,2,16,-82,-81,20,,
128,2,8,6,3,11,8,46,28,50,17,-82,-81,20,,
129,5,17,12,14,36,22,34,23,11,22,-82,-81,20,,
130,16,41,25,21,60,39,-10,23,-15,28,-82,-81,20,,
131,23,64,41,24,69,45,-11,22,4,24,-82,-81,20,,,,,,,,7,-2,-2,4,
132,32,90,58,36,100,64,-12,25,-2,27,-82,-81,20,,
133,48,125,77,47,126,79,-28,21,-50,24,-82,-81,20,,
134,50,132,82,52,146,94,-46,16,-60,25,-82,-81,20,,
135,56,150,94,57,157,100,-88,28,-72,31,-82,-81,20,,
136,62,168,106,60,157,97,-40,21,-42,32,-82,-81,20,,
137,59,155,96,52,133,81,-50,23,-94,22,-82,-81,20,,,,,,,,7,-2,-2,4,
138,49,122,73,40,97,57,-77,27,-62,17,-82,-81,20,,
139,27,64,37,15,38,23,-68,31,-52,28,-82,-81,20,,
140,6,5,-1,-11,-39,-28,-30,19,-12,18,-82,-81,20,,
141,-21,-62,-41,-25,-72,-47,3,15,36,14,-82,-81,20,,
142,-24,-65,-41,-24,-66,-42,46,21,58,18,-82,-81,20,,
143,-25,-69,-44,-25,-63,-38,29,29,-20,33,-82,-81,20,,
144,-25,-68,-43,-25,-65,-40,-6,20,-4,18,-82,-81,20,,,,,,,,7,-2,-2,4,
145,-23,-63,-40,-23,-67,-44,-25,23,-52,25,-82,-81,20,,
146,-22,-61,-39,-20,-62,-42,-29,25,-30,25,-82,-81,20,,
147,-22,-61,-39,-21,-60,-39,-35,17,-62,12,-82,-81,20,,
148,-23,-63,-40,-23,-58,-35,-61,16,-46,27,-82,-81,20,,
149,-22,-62,-40,-23,-63,-40,-28,14,-31,26,-82,-81,20,,,,,,,,7,-2,-2,4,
150,-23,-60,-37,-22,-62,-40,-10,15,11,20,-82,-81,20,,
151,-21,-56,-35,-19,-57,-38,14,30,36,23,-82,-81,20,,
152,-21,-60,-39,-21,-56,-35,81,29,104,22,-82,-81,20,,
153,-21,-61,-40,-21,-55,-34,88,13,136,22,-82,-81,20,,
154,-17,-54,-37,-21,-60,-39,138,25,69,27,-82,-81,20,,,,,,,,7,-2,-2,4,
155,-19,-51,-32,-21,-57,-36,54,26,54,21,-82,-81,20,,
156,-17,-50,-33,-18,-52,-34,52,17,79,24,-82,-81,20,,
157,-21,-59,-38,-17,-48,-31,108,24,89,21,-82,-81,20,,
158,-18,-54,-36,-18,-49,-31,94,17,45,26,-82,-81,20,,
159,-17,-49,-32,-18,-53,-35,13,28,-15,4,-82,-81,20,,
160,-17,-45,-28,-17,-49,-32,-23,8,-21,16,-82,-81,20,,,,,,,,7,-2,-2,4,
161,-17,-49,-32,-16,-43,-27,-11,26,-11,19,-82,-81,20,,
162,-17,-50,-33,-16,-45,-29,-19,6,20,12,-82,-81,20,,
163,-16,-46,-30,-16,-48,-32,46,16,15,25,-82,-81,20,,
164,-16,-42,-26,-15,-46,-31,7,12,15,20,-82,-81,20,,
165,-16,-43,-27,-15,-43,-28,-11,19,-1,17,-82,-81,20,,
166,-18,-48,-30,-15,-40,-25,22,7,20,5,-82,-81,20,,,,,,,,7,-2,-2,4,
167,-14,-45,-31,-16,-41,-25,-9,16,-47,12,-82,-81,20,,
168,-9,-21,-12,-5,-12,-7,-97,14,-129,17,-82,-81,20,,
169,4,12,8,10,24,14,-96,12,-87,13,-82,-81,20,,
170,12,33,21,16,41,25,-34,19,-4,14,-82,-81,20,,,,,,,,7,-2,-2,4,
171,13,25,12,10,24,14,31,6,53,24,-82,-81,20,,
172,5,11,6,0,-4,-4,32,13,37,19,-82,-81,20,,
173,-4,-15,-11,-11,-37,-26,48,0,64,-10,-82,-81,20,,
174,-15,-40,-25,-14,-42,-28,45,14,19,-5,-82,-81,20,,
175,-15,-45,-30,-11,-35,-24,-17,6,-56,0,-82,-81,20,,
176,-13,-42,-29,-15,-40,-25,-97,-3,-64,-1,-82,-81,20,,
177,-12,-38,-26,-15,-44,-29,-14,-16,34,-10,-82,-81,20,,,,,,,,7,-2,-2,4,
178,-12,-35,-23,-13,-42,-29,45,-5,82,-16,-82,-81,20,,
179,-15,-40,-25,-12,-50,-37,98,-19,70,-20,-82,-81,20,,
180,37,181,144,217,557,341,66,-12,33,-12,-82,-81,20,,
181,314,880,566,338,742,405,-7,-13,-49,-2,-82,-81,20,,
182,-22,-8,15,-101,-307,-206,-94,-12,-124,-27,-82,-81,20,,
183,-69,-138,-68,-26,-70,-43,-79,-19,-48,-29,-82,-81,20,,
184,-22,-58,-35,-17,-49,-31,-71,-11,-52,-16,-82,-81,20,,
185,-18,-54,-35,-18,-48,-29,-10,-20,-5,-9,-82,-81,20,,,,,,,,7,-2,-2,4,
186,-18,-51,-32,-19,-55,-35,-46,-16,-78,-14,-82,-81,20,,
187,-18,-48,-29,-19,-56,-36,-65,5,-44,-11,-82,-81,20,,
188,-18,-51,-32,-19,-50,-30,-5,-11,-4,-14,-82,-81,20,,
189,-18,-50,-31,-11,-29,-17,-52,-5,-53,-8,-82,-81,20,,,,,,,,7,-2,-2,4,
190,-11,-33,-21,-10,-29,-18,-38,-16,-3,-23,-82,-81,20,,
191,-6,-14,-7,-3,-8,-4,-20,-30,-16,-25,-82,-81,20,,
192,5,13,9,5,14,10,-24,-28,-8,-24,-82,-81,20,,
193,7,21,15,14,38,25,-18,-20,-39,-21,-82,-81,20,,
194,17,44,28,24,63,40,-28,-20,8,-22,-82,-81,20,,
195,24,67,44,26,71,46,8,-18,-38,-25,-82,-81,20,,,,26.2,,,,7,-2,-2,4,
196,34,94,61,38,103,66,-85,-32,-130,-33,-82,-81,20,,
197,46,124,79,50,131,82,-131,-23,-96,-20,-82,-81,20,,
198,49,131,83,55,150,96,-54,-16,-71,-25,-82,-81,20,,
199,58,154,97,59,161,103,-92,-26,-81,-26,-82,-81,20,,,,,,,,7,-2,-2,4,
200,63,170,108,59,155,97,-76,-33,-52,-21,-82,-81,20,,
201,56,151,96,53,133,81,-1,-26,58,-16,-82,-81,20,,
202,47,119,73,39,97,59,74,-18,29,-23,-82,-81,20,,
203,27,63,37,17,38,22,5,-25,-5,-19,-82,-81,20,,
204,5,2,-2,-13,-44,-30,-66,-28,-109,-23,-82,-81,20,,
205,-23,-61,-37,-22,-68,-45,-103,-26,-115,-27,-82,-81,20,,,,,,,,7,-2,-2,4,
206,-23,-64,-40,-22,-65,-42,-67,-13,-57,-5,-82,-81,20,,
207,-25,-69,-43,-23,-62,-38,-33,-12,-32,-13,-82,-81,20,,
208,-24,-68,-43,-22,-62,-39,-42,-8,-54,-7,-82,-81,20,,
209,-21,-61,-39,-23,-68,-44,-66,-21,-73,-17,-82,-81,20,,
210,-22,-60,-37,-22,-63,-40,-46,-18,-63,-21,-82,-81,20,,
211,-22,-62,-39,-21,-57,-35,-84,-12,-112,-16,-82,-81,20,,,,,,,,7,-2,-2,4,
212,-22,-66,-43,-20,-55,-34,-115,-10,-154,-16,-82,-81,20,,,,,,,,7,-2,-2,4,
213,-21,-61,-39,-21,-60,-38,-185,-12,-184,-10,-82,-81,20,,
214,-19,-54,-34,-22,-61,-38,-122,-26,-103,-24,-82,-81,20,,
215,-18,-54,-35,-19,-56,-36,-71,-19,-49,-18,-82,-81,20,,
216,-19,-56,-36,-20,-53,-32,-29,-15,-42,-20,-82,-81,20,,,,,,,,7,-2,-2,4,
217,-21,-59,-37,-20,-53,-32,-33,-15,-39,-18,-82,-81,20,,
218,-17,-49,-31,-20,-58,-37,-71,-18,-85,-8,-82,-81,20,,
219,-18,-50,-31,-19,-56,-36,-91,-15,-89,-22,-82,-81,20,,
220,-18,-52,-33,-19,-50,-30,-74,-16,-82,-11,-82,-81,20,,
221,-20,-55,-34,-19,-50,-30,-84,-6,-93,-7,-82,-81,20,,
222,-20,-54,-33,-19,-52,-32,-55,-5,-28,-7,-82,-81,20,,117,,,,,,7,-2,-2,4,
223,-16,-46,-29,-18,-51,-32,13,-17,13,-15,-82,-81,20,,
224,-17,-46,-28,-17,-48,-30,12,-3,6,-17,-82,-81,20,,
225,-18,-52,-33,-15,-42,-26,1,4,17,-9,-82,-81,20,,
226,-17,-54,-36,-17,-47,-29,19,-7,21,-7,-82,-81,20,,
227,-16,-46,-29,-18,-50,-31,-34,-18,-42,-24,-82,-81,20,,
228,-16,-43,-26,-16,-48,-31,-18,-22,-24,-16,-82,-81,20,,,,,,,,7,-2,-2,4,
229,-18,-49,-30,-15,-44,-28,6,-10,7,-16,-82,-81,20,,
230,-17,-48,-30,-16,-40,-23,15,-16,16,-21,-82,-81,20,,
231,-16,-45,-28,-14,-38,-23,-27,-20,-58,-20,-82,-81,20,,
232,-8,-20,-11,-4,-10,-5,-78,-25,-62,-15,-82,-81,20,,,,,,,,7,-2,-2,4,
233,3,11,9,7,24,18,-59,-7,-34,-13,-82,-81,20,,
234,10,29,20,13,38,26,-38,-8,-3,-11,-82,-81,20,,
235,11,23,13,7,19,13,18,-6,14,-2,-82,-81,20,,
236,6,10,5,2,-4,-5,-46,-7,-47,-14,-82,-81,20,,
237,-5,-17,-11,-11,-39,-27,-42,-13,-14,-13,-82,-81,20,,
238,-14,-39,-24,-16,-44,-27,-15,2,-50,1,-82,-81,20,,,,,,,,7,-2,-2,4,
239,-15,-46,-30,-14,-38,-23,-60,5,-81,-1,-82,-81,20,,
240,-13,-43,-29,-13,-40,-26,-114,-5,-136,-13,-82,-81,20,,
241,-16,-42,-25,-14,-44,-29,-144,-20,-145,-15,-82,-81,20,,
242,-14,-37,-22,-15,-41,-25,-152,-10,-137,-4,-82,-81,20,,
243,-15,-42,-26,-16,-56,-39,-153,-11,-148,-14,-82,-81,20,,
244,55,219,165,170,532,362,-152,-3,-103,5,-82,-81,20,,,,,,,,7,-2,-2,4,
245,323,894,572,320,654,334,-49,2,-13,3,-82,-81,20,,
246,61,34,-26,-113,-323,-209,29,0,5,3,-82,-81,20,,
247,-55,-113,-58,-26,-66,-40,-35,5,-48,-5,-82,-81,20,,
248,-24,-59,-35,-20,-49,-29,-77,-11,-112,-12,-82,-81,20,,
249,-22,-56,-34,-21,-53,-32,-144,-6,-138,0,-82,-81,20,,,,,,,,7,-2,-2,4,
250,-18,-49,-31,-21,-56,-35,-128,1,-36,6,-82,-81,20,,
251,-18,-46,-28,-19,-55,-35,47,-9,8,1,-82,-81,20,,
252,-19,-52,-32,-18,-51,-32,-51,-11,-91,-17,-82,-81,20,,
253,-19,-49,-29,-13,-31,-17,-102,-10,-138,-3,-82,-81,20,,
254,-11,-34,-22,-10,-28,-17,-136,-1,-132,-1,-82,-81,20,,
255,-5,-11,-5,-2,-6,-3,-127,-6,-101,-3,-82,-81,20,,,,,,,,7,-2,-2,4,
0,2,9,8,6,16,11,-90,-8,-107,-16,-82,-81,20,,
1,8,24,17,12,36,25,-95,-13,-89,-9,-82,-81,20,,
2,17,46,30,23,64,42,-88,5,-92,5,-82,-81,20,,
3,25,68,44,27,74,48,-87,-10,-77,-9,-82,-81,20,,
4,33,95,62,39,105,66,-53,-8,-57,-8,-82,-81,20,,
5,44,123,79,47,131,84,-37,-7,-36,-14,-82,-81,20,,,,,,,,7,-2,-2,4,
6,50,133,83,54,151,97,-52,-9,-45,-3,-82,-81,20,,
7,59,154,95,58,159,101,-41,-5,-71,-13,-82,-81,20,,
8,63,170,107,58,152,94,-112,10,-121,10,-82,-81,20,,
9,56,150,94,50,130,80,-152,1,-138,3,-82,-81,20,,
10,45,115,71,35,93,59,-115,2,-61,6,-82,-81,20,,
11,26,60,35,14,33,20,-42,4,-45,12,-82,-81,20,,,,,,,,7,-2,-2,4,
12,2,-4,-5,-13,-47,-33,-79,10,-110,3,-82,-81,20,,
13,-21,-60,-38,-25,-71,-45,-168,10,-135,3,-82,-81,20,,
14,-24,-63,-38,-24,-65,-40,-116,0,-155,-8,-82,-81,20,,
15,-25,-70,-44,-23,-60,-36,-144,0,-129,1,-82,-81,20,,,,,,,,7,-2,-2,4,
16,-23,-67,-43,-24,-65,-40,-101,5,-72,7,-82,-81,20,,
17,-21,-61,-39,-24,-68,-43,-83,-3,-73,6,-82,-81,20,,
18,-22,-61,-38,-22,-65,-42,-48,4,-37,-3,-82,-81,20,,
19,-22,-62,-39,-22,-59,-36,-39,0,-73,-1,-82,-81,20,,,,,,,,7,-2,-2,4,
20,-21,-64,-42,-21,-58,-36,-113,7,-163,-4,-82,-81,20,,
21,-21,-60,-38,-22,-64,-41,-210,6,-191,19,-82,-81,20,,
22,-19,-53,-33,-21,-62,-40,-145,4,-129,6,-82,-81,20,,
23,-21,-57,-35,-20,-57,-36,-99,4,-106,-3,-82,-81,20,,
24,-20,-58,-37,-20,-53,-32,-178,13,-181,14,-82,-81,20,,
25,-21,-60,-38,-21,-56,-34,-203,14,-162,18,-82,-81,20,,,20,,,,,7,-2,-2,4,
26,-18,-53,-34,-19,-54,-34,-140,13,-133,8,-82,-81,20,,
27,-18,-50,-31,-20,-57,-36,-130,9,-128,0,-82,-81,20,,
28,-19,-54,-34,-18,-49,-30,-143,6,-128,21,-82,-81,20,,
29,-19,-56,-36,-17,-49,-31,-125,18,-94,16,-82,-81,20,,
30,-16,-51,-34,-17,-52,-34,-88,14,-108,27,-82,-81,20,,
31,-17,-47,-29,-18,-54,-35,-125,19,-140,15,-82,-81,20,,,,,,,,7,-2,-2,4,
32,-17,-46,-28,-18,-51,-32,-177,25,-192,14,-82,-81,20,,
33,-18,-52,-33,-15,-44,-28,-164,15,-158,15,-82,-81,20,,
34,-16,-49,-32,-16,-45,-28,-179,24,-167,18,-82,-81,20,,
35,-13,-42,-28,-15,-47,-31,-152,15,-135,36,-82,-81,20,,,,,,,,7,-2,-2,4,
36,-13,-40,-26,-15,-47,-31,-89,24,-79,19,-82,-81,20,,
37,-15,-43,-27,-15,-41,-25,-53,28,-52,22,-82,-81,20,,
38,-16,-48,-31,-15,-39,-23,-60,23,-94,30,-82,-81,20,,
39,-15,-45,-29,-14,-36,-21,-161,35,-194,26,-82,-81,20,,
40,-5,-13,-7,-2,-8,-5,-205,25,-168,20,-82,-81,20,,
41,3,16,14,10,28,19,-162,34,-179,27,-82,-81,20,,,,,,,,7,-2,-2,4,
42,12,34,23,16,40,25,-163,38,-124,29,-82,-81,20,,
43,13,24,12,9,22,14,-114,34,-118,34,-82,-81,20,,
44,4,9,6,0,-8,-7,-142,29,-145,19,-82,-81,20,,
45,-4,-16,-11,-11,-37,-25,-154,25,-128,24,-82,-81,20,,
46,-15,-41,-25,-13,-39,-25,-130,34,-104,24,-82,-81,20,,
47,-16,-45,-28,-15,-39,-23,-62,24,-48,31,-82,-81,20,,,,,,,,7,-2,-2,4,
48,-14,-41,-26,-13,-39,-25,-40,36,-38,30,-82,-81,20,,
49,-15,-39,-23,-13,-41,-27,-59,18,-140,26,-82,-81,20,,
50,-14,-36,-21,-13,-40,-26,-181,24,-242,27,-82,-81,20,,
51,-14,-42,-27,-19,-32,-12,-240,27,-238,26,-82,-81,20,,
52,77,272,196,191,588,397,-207,30,-163,30,-82,-81,20,,
53,333,907,574,272,548,277,-132,16,-79,25,-82,-81,20,,
54,29,-34,-62,-117,-328,-211,-38,19,-53,15,-82,-81,20,,,,,,,,7,-2,-2,4,
55,-45,-100,-54,-24,-68,-43,-80,31,-123,27,-82,-81,20,,
56,-20,-59,-38,-19,-50,-30,-120,28,-97,26,-82,-81,20,,
57,-20,-55,-34,-19,-52,-32,-144,36,-162,34,-82,-81,20,,
58,-18,-51,-32,-17,-53,-35,-180,24,-171,33,-82,-81,20,,
59,-19,-49,-29,-17,-52,-34,-174,34,-188,26,-82,-81,20,,,,,,,,7,-2,-2,4,
60,-17,-52,-34,-16,-45,-28,-182,40,-190,41,-82,-81,20,,,,,,,,7,-2,-2,4,
61,-16,-46,-29,-11,-28,-16,-211,24,-215,25,-82,-81,20,,
62,-12,-33,-20,-9,-26,-16,-175,35,-149,40,-82,-81,20,,
63,-4,-7,-2,0,-4,-3,-135,39,-166,25,-82,-81,20,,
64,3,10,8,7,18,12,-216,25,-260,35,-82,-81,20,,
65,9,24,16,13,37,25,-265,34,-253,38,-82,-81,20,,,20,,,,,7,-2,-2,4,
66,18,45,28,23,61,39,-231,36,-184,36,-82,-81,20,,
67,27,71,45,29,77,49,-196,23,-219,27,-82,-81,20,,
68,35,99,65,44,110,67,-209,29,-197,30,-82,-81,20,,
69,44,123,80,50,135,86,-164,36,-164,33,-82,-81,20,,
70,51,135,85,57,153,97,-134,37,-73,29,-82,-81,20,,
71,57,153,97,59,161,103,-44,34,-4,40,-82,-81,20,,,,,,,,7,-2,-2,4,
72,64,170,107,59,152,94,18,30,-47,35,-82,-81,20,,
73,57,148,92,50,130,81,-71,46,-127,31,-82,-81,20,,
74,46,113,68,35,91,57,-173,32,-207,28,-82,-81,20,,
75,23,57,35,11,26,16,-231,19,-229,31,-82,-81,20,,
76,3,-5,-7,-17,-54,-36,-218,16,-249,5,-82,-81,20,,
77,-22,-61,-38,-24,-68,-43,-220,25,-202,28,-82,-81,20,,,,,,,,7,-2,-2,4,
78,-24,-67,-42,-24,-64,-39,-153,16,-78,21,-82,-81,20,,
79,-25,-68,-42,-23,-59,-35,-138,19,-175,32,-82,-81,20,,
80,-24,-67,-42,-23,-62,-38,-185,16,-129,17,-82,-81,20,,
81,-24,-60,-35,-24,-66,-41,-107,21,-120,27,-82,-81,20,,,,,,,,7,-2,-2,4,
82,-23,-58,-34,-23,-62,-38,-115,22,-100,26,-82,-81,20,,
83,-25,-65,-39,-23,-60,-36,-60,29,-21,26,-82,-81,20,,
84,-23,-64,-40,-22,-57,-34,-6,29,-28,38,-82,-81,20,,
85,-22,-59,-36,-23,-62,-38,-70,27,-63,30,-82,-81,20,,
